"study","p","condition","trial_number","lag","t1_correct","t2.t1","t1_rt","t2_rt"
7,1,"omm",1,5,TRUE,TRUE,965,726
7,1,"omm",2,3,TRUE,TRUE,902,278
7,1,"omm",3,3,TRUE,TRUE,872,574
7,1,"omm",4,8,TRUE,TRUE,2178,423
7,1,"omm",5,1,TRUE,TRUE,880,438
7,1,"omm",6,5,TRUE,TRUE,869,583
7,1,"omm",7,5,TRUE,TRUE,866,542
7,1,"omm",8,5,FALSE,FALSE,4256,1534
7,1,"omm",9,5,TRUE,TRUE,1187,421
7,1,"omm",10,1,TRUE,TRUE,1126,462
7,1,"omm",11,8,TRUE,TRUE,1680,1174
7,1,"omm",12,5,TRUE,TRUE,1220,558
7,1,"omm",13,8,TRUE,FALSE,2297,382
7,1,"omm",14,1,TRUE,TRUE,1290,797
7,1,"omm",15,3,TRUE,TRUE,1998,1902
7,1,"omm",16,5,TRUE,TRUE,981,535
7,1,"omm",17,1,TRUE,TRUE,901,606
7,1,"omm",18,8,TRUE,TRUE,871,469
7,1,"omm",19,8,TRUE,TRUE,1035,558
7,1,"omm",20,1,TRUE,TRUE,1118,565
7,1,"omm",21,8,TRUE,TRUE,713,591
7,1,"omm",22,3,TRUE,TRUE,799,381
7,1,"omm",23,8,TRUE,TRUE,1006,542
7,1,"omm",24,5,TRUE,TRUE,974,742
7,1,"omm",25,1,TRUE,TRUE,893,670
7,1,"omm",26,5,TRUE,TRUE,926,502
7,1,"omm",27,5,TRUE,TRUE,915,695
7,1,"omm",28,3,TRUE,TRUE,781,678
7,1,"omm",29,1,TRUE,TRUE,1117,383
7,1,"omm",30,3,TRUE,TRUE,789,590
7,1,"omm",31,5,TRUE,TRUE,926,422
7,1,"omm",32,1,TRUE,TRUE,794,558
7,1,"omm",33,1,TRUE,TRUE,936,541
7,1,"omm",34,1,TRUE,TRUE,1217,622
7,1,"omm",35,8,TRUE,TRUE,1091,422
7,1,"omm",36,8,TRUE,TRUE,1066,421
7,1,"omm",37,1,TRUE,TRUE,1131,318
7,1,"omm",38,1,TRUE,TRUE,897,646
7,1,"omm",39,1,TRUE,TRUE,937,270
7,1,"omm",40,3,TRUE,TRUE,436,703
7,1,"omm",41,3,TRUE,TRUE,1121,558
7,1,"omm",42,8,TRUE,TRUE,839,702
7,1,"omm",43,3,TRUE,TRUE,936,439
7,1,"omm",44,3,TRUE,TRUE,872,653
7,1,"omm",45,5,TRUE,TRUE,1024,727
7,1,"omm",46,1,TRUE,TRUE,1068,302
7,1,"omm",47,1,TRUE,TRUE,865,591
7,1,"omm",48,1,TRUE,TRUE,820,557
7,1,"omm",49,8,TRUE,TRUE,1019,526
7,1,"omm",50,3,TRUE,TRUE,808,493
7,1,"omm",51,8,TRUE,TRUE,901,253
7,1,"omm",52,8,TRUE,TRUE,1167,390
7,1,"omm",53,8,TRUE,TRUE,1017,246
7,1,"omm",54,1,TRUE,TRUE,1222,253
7,1,"omm",55,3,TRUE,TRUE,1056,342
7,1,"omm",56,5,TRUE,TRUE,852,661
7,1,"omm",57,3,TRUE,TRUE,453,286
7,1,"omm",58,1,TRUE,TRUE,983,990
7,1,"omm",59,5,TRUE,TRUE,969,822
7,1,"omm",60,8,TRUE,TRUE,1240,718
7,1,"omm",61,3,TRUE,TRUE,598,485
7,1,"omm",62,8,TRUE,TRUE,914,605
7,1,"omm",63,8,TRUE,TRUE,865,574
7,1,"omm",64,3,TRUE,TRUE,1218,789
7,1,"omm",65,8,TRUE,TRUE,834,862
7,1,"omm",66,8,TRUE,TRUE,754,406
7,1,"omm",67,8,TRUE,TRUE,912,487
7,1,"omm",68,5,TRUE,TRUE,2479,751
7,1,"omm",69,8,TRUE,TRUE,843,734
7,1,"omm",70,5,TRUE,TRUE,588,229
7,1,"omm",71,3,TRUE,FALSE,1456,494
7,1,"omm",72,1,TRUE,TRUE,956,350
7,1,"omm",73,3,TRUE,TRUE,908,462
7,1,"omm",74,1,TRUE,TRUE,578,310
7,1,"omm",75,1,TRUE,TRUE,1391,597
7,1,"omm",76,5,TRUE,TRUE,841,598
7,1,"omm",77,5,TRUE,FALSE,1175,822
7,1,"omm",78,8,TRUE,TRUE,802,550
7,1,"omm",79,5,TRUE,TRUE,819,654
7,1,"omm",80,5,TRUE,TRUE,592,422
7,1,"omm",81,3,TRUE,FALSE,1048,686
7,1,"omm",82,8,TRUE,FALSE,881,565
7,1,"omm",83,8,TRUE,TRUE,1441,1662
7,1,"omm",84,5,TRUE,TRUE,875,493
7,1,"omm",85,1,TRUE,TRUE,1248,421
7,1,"omm",86,8,TRUE,TRUE,1000,365
7,1,"omm",87,8,TRUE,TRUE,876,454
7,1,"omm",88,8,TRUE,TRUE,1519,381
7,1,"omm",89,8,TRUE,TRUE,749,574
7,1,"omm",90,3,TRUE,TRUE,987,373
7,1,"omm",91,5,TRUE,TRUE,705,734
7,1,"omm",92,8,TRUE,TRUE,1154,534
7,1,"omm",93,3,FALSE,FALSE,1102,630
7,1,"omm",94,1,TRUE,TRUE,1194,445
7,1,"omm",95,3,TRUE,TRUE,1170,645
7,1,"omm",96,5,TRUE,TRUE,653,573
7,1,"omm",97,1,TRUE,TRUE,820,814
7,1,"omm",98,5,TRUE,TRUE,969,653
7,1,"omm",99,8,TRUE,TRUE,1087,605
7,1,"omm",100,3,TRUE,FALSE,1863,781
7,1,"omm",101,8,TRUE,TRUE,777,549
7,1,"omm",102,5,TRUE,TRUE,1419,414
7,1,"omm",103,5,TRUE,TRUE,948,404
7,1,"omm",104,1,TRUE,FALSE,1480,389
7,1,"omm",105,3,TRUE,TRUE,831,205
7,1,"omm",106,1,TRUE,TRUE,1198,150
7,1,"omm",107,3,TRUE,TRUE,750,246
7,1,"omm",108,1,TRUE,TRUE,934,222
7,1,"omm",109,3,TRUE,TRUE,687,157
7,1,"omm",110,3,TRUE,TRUE,853,228
7,1,"omm",111,3,TRUE,TRUE,690,205
7,1,"omm",112,3,TRUE,TRUE,919,197
7,1,"omm",113,8,TRUE,TRUE,1818,2501
7,1,"omm",114,8,TRUE,TRUE,1059,358
7,1,"omm",115,8,TRUE,TRUE,1034,181
7,1,"omm",116,1,TRUE,TRUE,1149,238
7,1,"omm",117,5,TRUE,TRUE,1170,301
7,1,"omm",118,3,TRUE,TRUE,1137,189
7,1,"omm",119,1,TRUE,TRUE,952,1134
7,1,"omm",120,5,TRUE,TRUE,665,276
7,1,"omm",121,5,TRUE,TRUE,1185,253
7,1,"omm",122,3,TRUE,TRUE,831,204
7,1,"omm",123,5,TRUE,TRUE,816,318
7,1,"omm",124,3,TRUE,TRUE,581,317
7,1,"omm",125,8,TRUE,TRUE,924,333
7,1,"omm",126,1,TRUE,TRUE,1638,149
7,1,"omm",127,3,TRUE,TRUE,734,557
7,1,"omm",128,5,TRUE,TRUE,903,300
7,1,"omm",129,5,TRUE,TRUE,579,197
7,1,"omm",130,1,TRUE,TRUE,937,261
7,1,"omm",131,8,TRUE,TRUE,1006,253
7,1,"omm",132,5,TRUE,TRUE,1024,260
7,1,"omm",133,3,TRUE,TRUE,954,253
7,1,"omm",134,3,TRUE,TRUE,631,237
7,1,"omm",135,1,TRUE,TRUE,900,822
7,1,"omm",136,3,TRUE,TRUE,682,253
7,1,"omm",137,3,TRUE,TRUE,893,605
7,1,"omm",138,1,TRUE,TRUE,927,197
7,1,"omm",139,5,TRUE,TRUE,900,293
7,1,"omm",140,5,TRUE,TRUE,1055,333
7,1,"omm",141,5,TRUE,TRUE,1019,325
7,1,"omm",142,1,TRUE,TRUE,916,788
7,1,"omm",143,1,TRUE,TRUE,776,374
7,1,"omm",144,1,TRUE,TRUE,946,245
7,2,"fam",1,5,TRUE,TRUE,1868,294
7,2,"fam",2,8,TRUE,TRUE,1230,294
7,2,"fam",3,3,TRUE,TRUE,1391,294
7,2,"fam",4,5,TRUE,TRUE,1322,295
7,2,"fam",5,5,TRUE,TRUE,1381,271
7,2,"fam",6,1,TRUE,TRUE,1615,286
7,2,"fam",7,5,TRUE,TRUE,1283,246
7,2,"fam",8,1,TRUE,TRUE,1315,262
7,2,"fam",9,3,TRUE,TRUE,1750,239
7,2,"fam",10,3,TRUE,TRUE,1850,302
7,2,"fam",11,5,TRUE,TRUE,1135,262
7,2,"fam",12,1,TRUE,TRUE,2055,262
7,2,"fam",13,8,TRUE,TRUE,1851,279
7,2,"fam",14,5,TRUE,TRUE,931,302
7,2,"fam",15,1,TRUE,TRUE,1114,231
7,2,"fam",16,5,TRUE,TRUE,1045,533
7,2,"fam",17,1,TRUE,TRUE,879,311
7,2,"fam",18,3,TRUE,FALSE,1108,303
7,2,"fam",19,8,TRUE,TRUE,1845,254
7,2,"fam",20,8,TRUE,TRUE,1559,309
7,2,"fam",21,5,TRUE,TRUE,1057,294
7,2,"fam",22,3,TRUE,TRUE,1140,238
7,2,"fam",23,5,TRUE,TRUE,1231,334
7,2,"fam",24,3,TRUE,TRUE,1580,198
7,2,"fam",25,5,TRUE,TRUE,1480,381
7,2,"fam",26,8,TRUE,TRUE,1423,238
7,2,"fam",27,5,TRUE,TRUE,1329,246
7,2,"fam",28,3,TRUE,TRUE,809,222
7,2,"fam",29,1,TRUE,TRUE,912,254
7,2,"fam",30,8,TRUE,TRUE,2555,230
7,2,"fam",31,8,TRUE,TRUE,1353,254
7,2,"fam",32,1,TRUE,TRUE,882,278
7,2,"fam",33,8,TRUE,TRUE,860,279
7,2,"fam",34,5,TRUE,TRUE,865,302
7,2,"fam",35,8,TRUE,TRUE,1025,310
7,2,"fam",36,8,TRUE,TRUE,1816,294
7,2,"fam",37,8,TRUE,TRUE,1286,311
7,2,"fam",38,5,TRUE,TRUE,1044,279
7,2,"fam",39,1,TRUE,TRUE,1454,311
7,2,"fam",40,1,FALSE,FALSE,2254,383
7,2,"fam",41,1,TRUE,TRUE,1487,278
7,2,"fam",42,5,TRUE,TRUE,1915,302
7,2,"fam",43,3,TRUE,TRUE,1494,374
7,2,"fam",44,3,TRUE,TRUE,1225,325
7,2,"fam",45,1,TRUE,TRUE,1432,295
7,2,"fam",46,8,TRUE,TRUE,1070,326
7,2,"fam",47,8,TRUE,TRUE,1379,350
7,2,"fam",48,5,TRUE,TRUE,1085,295
7,2,"fam",49,5,TRUE,TRUE,1105,319
7,2,"fam",50,5,TRUE,TRUE,964,286
7,2,"fam",51,8,TRUE,TRUE,2525,263
7,2,"fam",52,3,TRUE,TRUE,1299,463
7,2,"fam",53,8,TRUE,TRUE,1436,255
7,2,"fam",54,1,TRUE,TRUE,1307,341
7,2,"fam",55,5,TRUE,TRUE,970,430
7,2,"fam",56,1,TRUE,TRUE,1171,519
7,2,"fam",57,5,TRUE,TRUE,1014,351
7,2,"fam",58,8,TRUE,TRUE,1247,285
7,2,"fam",59,5,TRUE,TRUE,1054,271
7,2,"fam",60,5,TRUE,TRUE,1060,301
7,2,"fam",61,3,TRUE,TRUE,2609,278
7,2,"fam",62,8,TRUE,TRUE,1704,277
7,2,"fam",63,5,TRUE,TRUE,1155,367
7,2,"fam",64,3,TRUE,TRUE,2230,173
7,2,"fam",65,8,TRUE,FALSE,1701,286
7,2,"fam",66,3,TRUE,TRUE,1625,213
7,2,"fam",67,5,TRUE,TRUE,1015,278
7,2,"fam",68,8,TRUE,TRUE,1067,278
7,2,"fam",69,5,TRUE,TRUE,854,407
7,2,"fam",70,8,TRUE,TRUE,1446,245
7,2,"fam",71,3,TRUE,TRUE,1252,254
7,2,"fam",72,8,TRUE,TRUE,1093,197
7,2,"fam",73,1,TRUE,TRUE,987,325
7,2,"fam",74,5,TRUE,TRUE,1123,205
7,2,"fam",75,3,TRUE,FALSE,1565,214
7,2,"fam",76,1,TRUE,TRUE,1249,262
7,2,"fam",77,1,TRUE,TRUE,1769,277
7,2,"fam",78,8,TRUE,TRUE,1489,198
7,2,"fam",79,3,TRUE,FALSE,2152,334
7,2,"fam",80,5,TRUE,TRUE,1213,262
7,2,"fam",81,8,TRUE,TRUE,1262,286
7,2,"fam",82,1,FALSE,FALSE,1268,222
7,2,"fam",83,5,TRUE,TRUE,1087,213
7,2,"fam",84,3,TRUE,TRUE,1374,253
7,2,"fam",85,3,TRUE,TRUE,1564,270
7,2,"fam",86,3,TRUE,TRUE,2237,230
7,2,"fam",87,3,TRUE,TRUE,1429,238
7,2,"fam",88,1,TRUE,TRUE,913,325
7,2,"fam",89,3,TRUE,TRUE,1688,222
7,2,"fam",90,3,TRUE,TRUE,884,230
7,2,"fam",91,8,TRUE,TRUE,2933,278
7,2,"fam",92,1,TRUE,TRUE,1489,189
7,2,"fam",93,3,TRUE,TRUE,1020,294
7,2,"fam",94,1,TRUE,TRUE,1281,245
7,2,"fam",95,3,TRUE,TRUE,1549,293
7,2,"fam",96,8,TRUE,TRUE,1502,381
7,2,"fam",97,5,TRUE,TRUE,997,414
7,2,"fam",98,3,TRUE,TRUE,1535,270
7,2,"fam",99,3,TRUE,TRUE,1474,286
7,2,"fam",100,8,TRUE,TRUE,1208,181
7,2,"fam",101,5,TRUE,TRUE,1399,293
7,2,"fam",102,3,TRUE,TRUE,1172,332
7,2,"fam",103,8,TRUE,TRUE,1443,342
7,2,"fam",104,5,TRUE,TRUE,1401,318
7,2,"fam",105,1,TRUE,TRUE,1672,278
7,2,"fam",106,5,TRUE,TRUE,1241,285
7,2,"fam",107,1,TRUE,TRUE,1273,333
7,2,"fam",108,8,TRUE,TRUE,1520,222
7,2,"fam",109,5,TRUE,TRUE,1410,309
7,2,"fam",110,8,TRUE,TRUE,1487,565
7,2,"fam",111,1,TRUE,TRUE,2104,278
7,2,"fam",112,3,TRUE,FALSE,1685,1644
7,2,"fam",113,1,TRUE,TRUE,1311,278
7,2,"fam",114,1,TRUE,TRUE,2137,189
7,2,"fam",115,1,TRUE,TRUE,1021,317
7,2,"fam",116,3,TRUE,FALSE,1201,173
7,2,"fam",117,8,TRUE,TRUE,1022,229
7,2,"fam",118,1,TRUE,TRUE,1763,285
7,2,"fam",119,5,TRUE,TRUE,1058,334
7,2,"fam",120,1,FALSE,FALSE,1301,316
7,2,"fam",121,1,TRUE,TRUE,1787,285
7,2,"fam",122,3,TRUE,TRUE,857,493
7,2,"fam",123,8,TRUE,TRUE,1304,390
7,2,"fam",124,1,TRUE,TRUE,1449,365
7,2,"fam",125,8,TRUE,TRUE,1539,420
7,2,"fam",126,1,TRUE,TRUE,860,478
7,2,"fam",127,1,TRUE,TRUE,1326,453
7,2,"fam",128,1,TRUE,TRUE,1466,318
7,2,"fam",129,3,TRUE,TRUE,1279,261
7,2,"fam",130,8,TRUE,TRUE,1464,389
7,2,"fam",131,8,TRUE,FALSE,1108,429
7,2,"fam",132,5,TRUE,TRUE,1630,533
7,2,"fam",133,1,TRUE,TRUE,1422,389
7,2,"fam",134,1,TRUE,TRUE,1161,205
7,2,"fam",135,1,TRUE,TRUE,1184,268
7,2,"fam",136,3,TRUE,TRUE,1550,574
7,2,"fam",137,5,TRUE,TRUE,1135,300
7,2,"fam",138,3,TRUE,TRUE,927,829
7,2,"fam",139,5,TRUE,TRUE,1888,357
7,2,"fam",140,8,TRUE,TRUE,1063,462
7,2,"fam",141,3,TRUE,TRUE,1757,382
7,2,"fam",142,8,TRUE,TRUE,1244,468
7,2,"fam",143,3,TRUE,FALSE,1264,397
7,2,"fam",144,3,TRUE,TRUE,1420,317
7,3,"fam",1,8,TRUE,TRUE,1135,157
7,3,"fam",2,8,TRUE,TRUE,771,167
7,3,"fam",3,1,TRUE,TRUE,868,215
7,3,"fam",4,8,TRUE,TRUE,908,198
7,3,"fam",5,3,TRUE,TRUE,1221,159
7,3,"fam",6,1,TRUE,TRUE,1045,215
7,3,"fam",7,5,TRUE,TRUE,1375,190
7,3,"fam",8,8,TRUE,TRUE,1088,174
7,3,"fam",9,3,TRUE,TRUE,853,215
7,3,"fam",10,3,TRUE,TRUE,735,182
7,3,"fam",11,1,TRUE,TRUE,998,222
7,3,"fam",12,5,TRUE,TRUE,848,197
7,3,"fam",13,8,TRUE,FALSE,1399,168
7,3,"fam",14,5,TRUE,TRUE,1297,134
7,3,"fam",15,8,TRUE,TRUE,862,247
7,3,"fam",16,1,TRUE,TRUE,1243,183
7,3,"fam",17,1,TRUE,TRUE,1134,190
7,3,"fam",18,3,TRUE,TRUE,1223,189
7,3,"fam",19,1,TRUE,TRUE,1190,215
7,3,"fam",20,3,TRUE,TRUE,957,206
7,3,"fam",21,1,FALSE,FALSE,1426,183
7,3,"fam",22,8,TRUE,FALSE,1115,190
7,3,"fam",23,3,TRUE,TRUE,708,206
7,3,"fam",24,5,TRUE,TRUE,771,230
7,3,"fam",25,5,TRUE,TRUE,941,206
7,3,"fam",26,3,TRUE,TRUE,1660,263
7,3,"fam",27,8,TRUE,TRUE,1459,206
7,3,"fam",28,5,TRUE,TRUE,735,214
7,3,"fam",29,5,TRUE,TRUE,1068,286
7,3,"fam",30,1,TRUE,TRUE,832,247
7,3,"fam",31,3,TRUE,TRUE,633,198
7,3,"fam",32,5,TRUE,TRUE,883,206
7,3,"fam",33,5,TRUE,TRUE,849,222
7,3,"fam",34,5,TRUE,TRUE,1234,206
7,3,"fam",35,5,TRUE,TRUE,755,206
7,3,"fam",36,3,TRUE,TRUE,886,222
7,3,"fam",37,8,TRUE,TRUE,1740,223
7,3,"fam",38,5,TRUE,TRUE,787,253
7,3,"fam",39,3,TRUE,TRUE,677,302
7,3,"fam",40,1,TRUE,TRUE,1025,262
7,3,"fam",41,3,TRUE,TRUE,661,317
7,3,"fam",42,3,TRUE,TRUE,812,405
7,3,"fam",43,8,TRUE,FALSE,1785,199
7,3,"fam",44,5,TRUE,TRUE,541,222
7,3,"fam",45,3,TRUE,FALSE,777,230
7,3,"fam",46,8,TRUE,TRUE,1311,214
7,3,"fam",47,3,TRUE,TRUE,1084,246
7,3,"fam",48,8,TRUE,TRUE,1018,158
7,3,"fam",49,5,TRUE,TRUE,1126,415
7,3,"fam",50,8,TRUE,TRUE,882,198
7,3,"fam",51,8,TRUE,TRUE,933,270
7,3,"fam",52,5,TRUE,TRUE,1337,221
7,3,"fam",53,8,TRUE,TRUE,933,158
7,3,"fam",54,1,TRUE,TRUE,838,198
7,3,"fam",55,8,TRUE,TRUE,1125,238
7,3,"fam",56,5,TRUE,TRUE,808,293
7,3,"fam",57,3,TRUE,TRUE,1307,326
7,3,"fam",58,1,TRUE,TRUE,665,213
7,3,"fam",59,1,TRUE,TRUE,1054,278
7,3,"fam",60,3,TRUE,TRUE,844,221
7,3,"fam",61,3,TRUE,TRUE,879,238
7,3,"fam",62,8,TRUE,TRUE,816,287
7,3,"fam",63,5,TRUE,TRUE,746,198
7,3,"fam",64,5,TRUE,TRUE,917,285
7,3,"fam",65,3,TRUE,TRUE,793,222
7,3,"fam",66,5,TRUE,TRUE,1006,277
7,3,"fam",67,3,TRUE,TRUE,1147,207
7,3,"fam",68,8,TRUE,TRUE,821,382
7,3,"fam",69,8,TRUE,TRUE,833,286
7,3,"fam",70,5,TRUE,TRUE,919,310
7,3,"fam",71,1,TRUE,TRUE,717,261
7,3,"fam",72,1,TRUE,TRUE,966,293
7,3,"fam",73,3,TRUE,TRUE,563,230
7,3,"fam",74,1,TRUE,TRUE,629,261
7,3,"fam",75,5,TRUE,TRUE,996,861
7,3,"fam",76,5,TRUE,TRUE,1030,294
7,3,"fam",77,3,TRUE,TRUE,636,237
7,3,"fam",78,1,TRUE,TRUE,604,229
7,3,"fam",79,1,TRUE,TRUE,897,206
7,3,"fam",80,8,TRUE,TRUE,765,230
7,3,"fam",81,5,TRUE,TRUE,1299,285
7,3,"fam",82,1,TRUE,TRUE,501,206
7,3,"fam",83,3,TRUE,TRUE,1543,237
7,3,"fam",84,8,TRUE,TRUE,729,310
7,3,"fam",85,1,TRUE,TRUE,953,190
7,3,"fam",86,3,TRUE,TRUE,839,237
7,3,"fam",87,3,TRUE,TRUE,568,559
7,3,"fam",88,5,TRUE,TRUE,1023,221
7,3,"fam",89,1,TRUE,TRUE,844,229
7,3,"fam",90,1,TRUE,TRUE,495,204
7,3,"fam",91,3,TRUE,TRUE,745,270
7,3,"fam",92,8,TRUE,TRUE,1124,181
7,3,"fam",93,3,TRUE,TRUE,428,206
7,3,"fam",94,8,TRUE,TRUE,1125,221
7,3,"fam",95,3,TRUE,TRUE,651,222
7,3,"fam",96,5,TRUE,TRUE,851,182
7,3,"fam",97,8,TRUE,TRUE,1141,254
7,3,"fam",98,1,TRUE,TRUE,1028,614
7,3,"fam",99,1,TRUE,TRUE,386,190
7,3,"fam",100,8,TRUE,TRUE,1107,198
7,3,"fam",101,1,TRUE,TRUE,817,365
7,3,"fam",102,5,TRUE,TRUE,491,342
7,3,"fam",103,5,TRUE,TRUE,585,206
7,3,"fam",104,8,TRUE,TRUE,721,221
7,3,"fam",105,5,TRUE,TRUE,642,189
7,3,"fam",106,5,TRUE,TRUE,608,222
7,3,"fam",107,8,TRUE,TRUE,941,174
7,3,"fam",108,1,TRUE,TRUE,1349,229
7,3,"fam",109,8,TRUE,FALSE,1340,206
7,3,"fam",110,8,TRUE,TRUE,2224,253
7,3,"fam",111,1,TRUE,TRUE,639,198
7,3,"fam",112,8,TRUE,TRUE,885,293
7,3,"fam",113,3,TRUE,TRUE,1276,157
7,3,"fam",114,5,TRUE,TRUE,620,230
7,3,"fam",115,3,TRUE,TRUE,1250,285
7,3,"fam",116,1,TRUE,TRUE,864,252
7,3,"fam",117,3,TRUE,TRUE,572,277
7,3,"fam",118,8,TRUE,TRUE,1242,318
7,3,"fam",119,1,TRUE,TRUE,687,269
7,3,"fam",120,5,TRUE,TRUE,563,262
7,3,"fam",121,3,TRUE,TRUE,891,270
7,3,"fam",122,1,TRUE,TRUE,548,269
7,3,"fam",123,5,TRUE,TRUE,632,261
7,3,"fam",124,3,TRUE,TRUE,436,213
7,3,"fam",125,1,TRUE,TRUE,527,198
7,3,"fam",126,1,TRUE,TRUE,538,237
7,3,"fam",127,3,TRUE,TRUE,634,237
7,3,"fam",128,3,TRUE,TRUE,679,206
7,3,"fam",129,1,TRUE,TRUE,826,358
7,3,"fam",130,5,TRUE,TRUE,412,277
7,3,"fam",131,1,TRUE,TRUE,682,284
7,3,"fam",132,1,TRUE,TRUE,486,285
7,3,"fam",133,5,TRUE,TRUE,963,189
7,3,"fam",134,8,TRUE,TRUE,766,309
7,3,"fam",135,8,TRUE,TRUE,959,244
7,3,"fam",136,8,TRUE,TRUE,744,174
7,3,"fam",137,8,TRUE,TRUE,842,333
7,3,"fam",138,1,TRUE,TRUE,1405,205
7,3,"fam",139,1,TRUE,TRUE,300,237
7,3,"fam",140,8,TRUE,TRUE,1007,189
7,3,"fam",141,3,TRUE,FALSE,1262,397
7,3,"fam",142,5,TRUE,TRUE,414,277
7,3,"fam",143,3,TRUE,TRUE,605,285
7,3,"fam",144,5,TRUE,TRUE,471,244
7,4,"fam",1,3,TRUE,TRUE,806,142
7,4,"fam",2,3,TRUE,TRUE,997,150
7,4,"fam",3,8,TRUE,TRUE,992,118
7,4,"fam",4,8,TRUE,TRUE,973,159
7,4,"fam",5,5,TRUE,FALSE,1351,191
7,4,"fam",6,5,TRUE,TRUE,833,150
7,4,"fam",7,1,TRUE,TRUE,1233,143
7,4,"fam",8,5,TRUE,TRUE,797,158
7,4,"fam",9,3,FALSE,FALSE,1281,1190
7,4,"fam",10,8,TRUE,TRUE,855,286
7,4,"fam",11,3,TRUE,FALSE,1157,126
7,4,"fam",12,1,TRUE,TRUE,1109,126
7,4,"fam",13,3,TRUE,TRUE,1007,151
7,4,"fam",14,5,TRUE,TRUE,852,358
7,4,"fam",15,5,TRUE,TRUE,671,166
7,4,"fam",16,8,TRUE,TRUE,900,117
7,4,"fam",17,8,TRUE,TRUE,788,93
7,4,"fam",18,5,TRUE,TRUE,740,294
7,4,"fam",19,8,TRUE,TRUE,1102,167
7,4,"fam",20,1,FALSE,FALSE,1547,590
7,4,"fam",21,8,TRUE,TRUE,683,334
7,4,"fam",22,3,TRUE,TRUE,1183,159
7,4,"fam",23,5,TRUE,TRUE,1337,142
7,4,"fam",24,5,TRUE,TRUE,945,230
7,4,"fam",25,8,TRUE,TRUE,793,301
7,4,"fam",26,8,FALSE,FALSE,1335,150
7,4,"fam",27,5,TRUE,TRUE,813,87
7,4,"fam",28,3,TRUE,TRUE,785,174
7,4,"fam",29,1,TRUE,TRUE,1020,135
7,4,"fam",30,5,TRUE,TRUE,948,245
7,4,"fam",31,3,TRUE,TRUE,1166,879
7,4,"fam",32,8,TRUE,TRUE,1121,158
7,4,"fam",33,5,TRUE,TRUE,1326,142
7,4,"fam",34,1,TRUE,TRUE,944,126
7,4,"fam",35,3,TRUE,FALSE,1080,190
7,4,"fam",36,1,TRUE,TRUE,1282,95
7,4,"fam",37,3,TRUE,TRUE,887,190
7,4,"fam",38,1,TRUE,TRUE,867,238
7,4,"fam",39,8,TRUE,TRUE,877,118
7,4,"fam",40,3,FALSE,FALSE,1160,183
7,4,"fam",41,5,TRUE,TRUE,753,310
7,4,"fam",42,3,TRUE,TRUE,827,271
7,4,"fam",43,5,TRUE,TRUE,787,111
7,4,"fam",44,1,TRUE,TRUE,916,205
7,4,"fam",45,3,TRUE,FALSE,1071,278
7,4,"fam",46,1,TRUE,TRUE,893,158
7,4,"fam",47,3,TRUE,TRUE,1278,182
7,4,"fam",48,8,TRUE,TRUE,856,142
7,4,"fam",49,3,TRUE,TRUE,828,221
7,4,"fam",50,3,TRUE,TRUE,798,262
7,4,"fam",51,1,TRUE,TRUE,947,414
7,4,"fam",52,5,TRUE,TRUE,721,93
7,4,"fam",53,1,TRUE,TRUE,1241,134
7,4,"fam",54,5,TRUE,TRUE,1005,174
7,4,"fam",55,8,TRUE,TRUE,934,302
7,4,"fam",56,1,TRUE,TRUE,951,206
7,4,"fam",57,8,TRUE,FALSE,1401,101
7,4,"fam",58,8,TRUE,TRUE,878,190
7,4,"fam",59,3,TRUE,TRUE,1147,358
7,4,"fam",60,8,TRUE,TRUE,851,135
7,4,"fam",61,1,TRUE,TRUE,749,143
7,4,"fam",62,5,TRUE,TRUE,620,398
7,4,"fam",63,3,TRUE,TRUE,895,189
7,4,"fam",64,3,TRUE,FALSE,1397,454
7,4,"fam",65,3,TRUE,TRUE,868,134
7,4,"fam",66,5,FALSE,FALSE,1565,566
7,4,"fam",67,5,TRUE,TRUE,834,310
7,4,"fam",68,1,TRUE,TRUE,895,206
7,4,"fam",69,1,TRUE,TRUE,1009,598
7,4,"fam",70,3,TRUE,TRUE,806,326
7,4,"fam",71,8,TRUE,TRUE,1065,86
7,4,"fam",72,8,TRUE,TRUE,907,246
7,4,"fam",73,5,TRUE,TRUE,381,86
7,4,"fam",74,5,TRUE,TRUE,810,125
7,4,"fam",75,1,TRUE,TRUE,842,102
7,4,"fam",76,1,TRUE,TRUE,1128,101
7,4,"fam",77,8,TRUE,TRUE,890,101
7,4,"fam",78,5,TRUE,FALSE,957,134
7,4,"fam",79,5,TRUE,TRUE,610,229
7,4,"fam",80,8,TRUE,TRUE,675,221
7,4,"fam",81,3,TRUE,TRUE,760,270
7,4,"fam",82,3,TRUE,TRUE,873,197
7,4,"fam",83,8,TRUE,TRUE,1038,157
7,4,"fam",84,3,TRUE,TRUE,1170,173
7,4,"fam",85,1,TRUE,TRUE,910,294
7,4,"fam",86,1,TRUE,TRUE,1106,165
7,4,"fam",87,5,FALSE,FALSE,1249,797
7,4,"fam",88,1,TRUE,TRUE,874,294
7,4,"fam",89,5,TRUE,FALSE,1324,158
7,4,"fam",90,1,TRUE,TRUE,1018,325
7,4,"fam",91,8,TRUE,TRUE,994,142
7,4,"fam",92,8,TRUE,TRUE,1288,253
7,4,"fam",93,8,TRUE,TRUE,1083,182
7,4,"fam",94,3,TRUE,TRUE,787,189
7,4,"fam",95,8,TRUE,TRUE,735,413
7,4,"fam",96,5,TRUE,TRUE,1061,149
7,4,"fam",97,1,FALSE,FALSE,1295,197
7,4,"fam",98,8,TRUE,TRUE,1005,325
7,4,"fam",99,1,TRUE,TRUE,1019,269
7,4,"fam",100,1,TRUE,TRUE,956,301
7,4,"fam",101,3,TRUE,TRUE,1281,277
7,4,"fam",102,1,TRUE,TRUE,1145,133
7,4,"fam",103,5,TRUE,TRUE,1212,166
7,4,"fam",104,8,TRUE,TRUE,1324,181
7,4,"fam",105,8,TRUE,TRUE,1180,0
7,4,"fam",106,5,TRUE,TRUE,1042,189
7,4,"fam",107,1,TRUE,TRUE,1274,261
7,4,"fam",108,8,TRUE,TRUE,931,181
7,4,"fam",109,8,TRUE,TRUE,1083,237
7,4,"fam",110,1,TRUE,TRUE,894,140
7,4,"fam",111,3,TRUE,TRUE,947,150
7,4,"fam",112,5,TRUE,TRUE,1410,165
7,4,"fam",113,3,TRUE,TRUE,1097,278
7,4,"fam",114,5,TRUE,TRUE,960,213
7,4,"fam",115,3,TRUE,TRUE,646,351
7,4,"fam",116,3,TRUE,TRUE,831,693
7,4,"fam",117,3,TRUE,TRUE,1033,141
7,4,"fam",118,1,TRUE,TRUE,943,300
7,4,"fam",119,3,TRUE,TRUE,821,94
7,4,"fam",120,5,TRUE,TRUE,940,181
7,4,"fam",121,8,TRUE,TRUE,827,134
7,4,"fam",122,5,TRUE,TRUE,888,214
7,4,"fam",123,1,TRUE,TRUE,820,166
7,4,"fam",124,5,TRUE,TRUE,868,436
7,4,"fam",125,8,TRUE,TRUE,989,301
7,4,"fam",126,8,TRUE,TRUE,1025,221
7,4,"fam",127,5,TRUE,TRUE,931,229
7,4,"fam",128,8,TRUE,TRUE,933,188
7,4,"fam",129,5,TRUE,TRUE,912,132
7,4,"fam",130,5,TRUE,TRUE,1247,101
7,4,"fam",131,3,TRUE,TRUE,1109,157
7,4,"fam",132,1,TRUE,TRUE,1015,125
7,4,"fam",133,1,TRUE,TRUE,1140,124
7,4,"fam",134,5,TRUE,TRUE,872,157
7,4,"fam",135,1,TRUE,TRUE,1030,133
7,4,"fam",136,8,TRUE,TRUE,1049,76
7,4,"fam",137,3,TRUE,TRUE,940,125
7,4,"fam",138,3,TRUE,TRUE,776,429
7,4,"fam",139,1,TRUE,TRUE,1413,141
7,4,"fam",140,1,TRUE,TRUE,1116,172
7,4,"fam",141,8,TRUE,TRUE,1094,109
7,4,"fam",142,1,TRUE,TRUE,1620,133
7,4,"fam",143,3,TRUE,FALSE,1097,182
7,4,"fam",144,1,TRUE,TRUE,943,142
7,5,"omm",1,8,TRUE,TRUE,739,319
7,5,"omm",2,5,TRUE,TRUE,796,373
7,5,"omm",3,8,TRUE,TRUE,1229,238
7,5,"omm",4,1,TRUE,TRUE,909,375
7,5,"omm",5,3,TRUE,FALSE,1367,223
7,5,"omm",6,8,TRUE,FALSE,1001,262
7,5,"omm",7,5,TRUE,TRUE,1086,655
7,5,"omm",8,8,TRUE,TRUE,1103,166
7,5,"omm",9,3,TRUE,TRUE,1126,343
7,5,"omm",10,8,TRUE,TRUE,1048,255
7,5,"omm",11,5,TRUE,TRUE,1079,247
7,5,"omm",12,3,TRUE,TRUE,1227,806
7,5,"omm",13,1,TRUE,TRUE,1182,366
7,5,"omm",14,8,TRUE,TRUE,887,246
7,5,"omm",15,1,FALSE,FALSE,1101,646
7,5,"omm",16,1,TRUE,TRUE,1286,294
7,5,"omm",17,8,TRUE,TRUE,1517,215
7,5,"omm",18,1,TRUE,TRUE,1214,238
7,5,"omm",19,8,TRUE,TRUE,1213,342
7,5,"omm",20,3,TRUE,TRUE,1133,557
7,5,"omm",21,1,FALSE,FALSE,1498,246
7,5,"omm",22,5,TRUE,FALSE,1563,270
7,5,"omm",23,1,TRUE,TRUE,1239,223
7,5,"omm",24,8,TRUE,TRUE,1635,294
7,5,"omm",25,5,TRUE,TRUE,827,246
7,5,"omm",26,1,TRUE,TRUE,1080,263
7,5,"omm",27,1,TRUE,TRUE,965,462
7,5,"omm",28,8,TRUE,TRUE,1285,470
7,5,"omm",29,1,TRUE,TRUE,974,214
7,5,"omm",30,1,TRUE,TRUE,1180,246
7,5,"omm",31,3,TRUE,TRUE,809,221
7,5,"omm",32,5,TRUE,TRUE,1022,334
7,5,"omm",33,8,TRUE,TRUE,1004,542
7,5,"omm",34,8,TRUE,TRUE,837,351
7,5,"omm",35,3,TRUE,TRUE,1132,455
7,5,"omm",36,3,TRUE,FALSE,958,438
7,5,"omm",37,5,TRUE,FALSE,1584,278
7,5,"omm",38,1,TRUE,TRUE,992,239
7,5,"omm",39,5,TRUE,TRUE,991,502
7,5,"omm",40,5,TRUE,TRUE,1098,294
7,5,"omm",41,8,FALSE,FALSE,1215,535
7,5,"omm",42,5,TRUE,FALSE,1182,703
7,5,"omm",43,8,TRUE,TRUE,849,237
7,5,"omm",44,8,TRUE,TRUE,972,453
7,5,"omm",45,8,TRUE,TRUE,1161,254
7,5,"omm",46,8,TRUE,TRUE,868,198
7,5,"omm",47,5,TRUE,TRUE,1253,238
7,5,"omm",48,1,TRUE,TRUE,1380,228
7,5,"omm",49,8,TRUE,TRUE,1364,399
7,5,"omm",50,8,TRUE,TRUE,1242,190
7,5,"omm",51,8,TRUE,TRUE,1238,239
7,5,"omm",52,3,TRUE,TRUE,773,318
7,5,"omm",53,8,TRUE,TRUE,938,382
7,5,"omm",54,3,TRUE,TRUE,907,231
7,5,"omm",55,1,TRUE,TRUE,1192,326
7,5,"omm",56,5,TRUE,TRUE,848,239
7,5,"omm",57,1,TRUE,TRUE,1707,334
7,5,"omm",58,8,TRUE,TRUE,1229,230
7,5,"omm",59,1,TRUE,TRUE,981,310
7,5,"omm",60,5,TRUE,TRUE,1291,358
7,5,"omm",61,3,TRUE,FALSE,1875,431
7,5,"omm",62,1,TRUE,TRUE,1166,445
7,5,"omm",63,3,TRUE,FALSE,1203,566
7,5,"omm",64,3,TRUE,TRUE,1036,229
7,5,"omm",65,1,TRUE,TRUE,1320,191
7,5,"omm",66,5,TRUE,TRUE,970,389
7,5,"omm",67,1,TRUE,TRUE,1031,213
7,5,"omm",68,5,TRUE,TRUE,852,663
7,5,"omm",69,1,TRUE,TRUE,758,238
7,5,"omm",70,5,TRUE,TRUE,1066,269
7,5,"omm",71,8,TRUE,TRUE,909,255
7,5,"omm",72,5,TRUE,TRUE,706,245
7,5,"omm",73,3,TRUE,TRUE,1530,253
7,5,"omm",74,3,TRUE,TRUE,1063,374
7,5,"omm",75,3,TRUE,TRUE,832,310
7,5,"omm",76,5,TRUE,TRUE,1718,254
7,5,"omm",77,1,TRUE,TRUE,834,405
7,5,"omm",78,5,TRUE,TRUE,958,197
7,5,"omm",79,8,TRUE,TRUE,827,773
7,5,"omm",80,5,TRUE,TRUE,819,453
7,5,"omm",81,1,FALSE,FALSE,1456,454
7,5,"omm",82,1,TRUE,TRUE,944,213
7,5,"omm",83,3,TRUE,TRUE,1536,229
7,5,"omm",84,3,FALSE,FALSE,990,237
7,5,"omm",85,1,TRUE,TRUE,655,597
7,5,"omm",86,3,TRUE,TRUE,1146,205
7,5,"omm",87,5,TRUE,TRUE,817,198
7,5,"omm",88,8,TRUE,TRUE,1465,389
7,5,"omm",89,8,TRUE,TRUE,1605,213
7,5,"omm",90,8,TRUE,TRUE,943,654
7,5,"omm",91,8,TRUE,TRUE,1034,462
7,5,"omm",92,5,TRUE,TRUE,1098,293
7,5,"omm",93,3,TRUE,TRUE,1044,333
7,5,"omm",94,5,TRUE,TRUE,1091,245
7,5,"omm",95,3,TRUE,FALSE,1202,749
7,5,"omm",96,5,TRUE,TRUE,1010,237
7,5,"omm",97,8,TRUE,TRUE,879,437
7,5,"omm",98,5,TRUE,FALSE,1050,501
7,5,"omm",99,5,TRUE,TRUE,904,310
7,5,"omm",100,8,TRUE,TRUE,890,238
7,5,"omm",101,3,TRUE,TRUE,1150,245
7,5,"omm",102,3,TRUE,FALSE,1124,205
7,5,"omm",103,5,TRUE,TRUE,1424,549
7,5,"omm",104,1,TRUE,TRUE,1712,277
7,5,"omm",105,5,TRUE,TRUE,950,422
7,5,"omm",106,5,TRUE,TRUE,1457,197
7,5,"omm",107,3,TRUE,TRUE,1248,469
7,5,"omm",108,5,TRUE,TRUE,1477,244
7,5,"omm",109,1,FALSE,FALSE,1827,461
7,5,"omm",110,1,TRUE,TRUE,1001,197
7,5,"omm",111,3,TRUE,TRUE,962,261
7,5,"omm",112,8,TRUE,TRUE,1067,222
7,5,"omm",113,8,TRUE,TRUE,1015,534
7,5,"omm",114,8,TRUE,TRUE,1663,437
7,5,"omm",115,5,TRUE,TRUE,1073,325
7,5,"omm",116,3,TRUE,TRUE,1053,341
7,5,"omm",117,1,TRUE,TRUE,834,220
7,5,"omm",118,1,TRUE,TRUE,1102,397
7,5,"omm",119,3,TRUE,TRUE,806,149
7,5,"omm",120,1,TRUE,TRUE,938,237
7,5,"omm",121,1,TRUE,TRUE,1087,453
7,5,"omm",122,5,TRUE,TRUE,1430,109
7,5,"omm",123,3,TRUE,FALSE,1003,221
7,5,"omm",124,5,TRUE,TRUE,862,302
7,5,"omm",125,1,TRUE,TRUE,719,230
7,5,"omm",126,3,TRUE,TRUE,1221,348
7,5,"omm",127,8,TRUE,TRUE,1546,245
7,5,"omm",128,3,FALSE,FALSE,1463,197
7,5,"omm",129,1,TRUE,TRUE,902,518
7,5,"omm",130,8,TRUE,TRUE,1223,293
7,5,"omm",131,1,TRUE,TRUE,765,221
7,5,"omm",132,3,TRUE,TRUE,823,389
7,5,"omm",133,3,FALSE,FALSE,1345,493
7,5,"omm",134,3,TRUE,FALSE,924,1013
7,5,"omm",135,3,TRUE,TRUE,1277,190
7,5,"omm",136,8,TRUE,TRUE,1040,237
7,5,"omm",137,5,TRUE,TRUE,1790,222
7,5,"omm",138,1,TRUE,TRUE,1498,453
7,5,"omm",139,1,TRUE,TRUE,772,350
7,5,"omm",140,3,TRUE,FALSE,1077,381
7,5,"omm",141,3,TRUE,TRUE,836,221
7,5,"omm",142,5,TRUE,TRUE,1716,524
7,5,"omm",143,3,TRUE,TRUE,925,285
7,5,"omm",144,5,TRUE,TRUE,1096,166
7,6,"fam",1,1,TRUE,TRUE,1394,167
7,6,"fam",2,1,TRUE,TRUE,1196,190
7,6,"fam",3,3,TRUE,TRUE,1355,144
7,6,"fam",4,8,TRUE,FALSE,1554,783
7,6,"fam",5,3,TRUE,FALSE,1009,95
7,6,"fam",6,5,TRUE,FALSE,1098,726
7,6,"fam",7,3,FALSE,FALSE,NA,4843
7,6,"fam",8,8,FALSE,FALSE,2070,2350
7,6,"fam",9,1,TRUE,TRUE,977,183
7,6,"fam",10,5,TRUE,TRUE,1347,206
7,6,"fam",11,5,TRUE,FALSE,1299,1007
7,6,"fam",12,5,TRUE,FALSE,1136,1190
7,6,"fam",13,3,FALSE,FALSE,1426,302
7,6,"fam",14,5,TRUE,FALSE,1691,838
7,6,"fam",15,3,FALSE,FALSE,2520,1022
7,6,"fam",16,5,TRUE,TRUE,1672,199
7,6,"fam",17,8,TRUE,FALSE,1648,327
7,6,"fam",18,8,TRUE,FALSE,1669,461
7,6,"fam",19,8,TRUE,TRUE,1358,134
7,6,"fam",20,5,TRUE,FALSE,1574,206
7,6,"fam",21,1,TRUE,TRUE,1181,150
7,6,"fam",22,1,FALSE,FALSE,1894,181
7,6,"fam",23,8,TRUE,FALSE,1194,190
7,6,"fam",24,3,FALSE,FALSE,1326,157
7,6,"fam",25,1,FALSE,FALSE,1285,213
7,6,"fam",26,3,TRUE,TRUE,1064,245
7,6,"fam",27,3,TRUE,TRUE,1099,222
7,6,"fam",28,8,TRUE,FALSE,1520,358
7,6,"fam",29,5,TRUE,TRUE,1823,262
7,6,"fam",30,8,TRUE,TRUE,1201,190
7,6,"fam",31,1,FALSE,FALSE,1431,247
7,6,"fam",32,3,TRUE,FALSE,1171,182
7,6,"fam",33,3,TRUE,TRUE,1326,222
7,6,"fam",34,1,TRUE,TRUE,882,167
7,6,"fam",35,5,TRUE,FALSE,1707,303
7,6,"fam",36,1,TRUE,TRUE,929,222
7,6,"fam",37,3,TRUE,FALSE,1653,183
7,6,"fam",38,8,TRUE,FALSE,1388,285
7,6,"fam",39,8,TRUE,FALSE,1620,205
7,6,"fam",40,8,TRUE,FALSE,1426,357
7,6,"fam",41,1,TRUE,TRUE,1149,166
7,6,"fam",42,3,TRUE,FALSE,1197,414
7,6,"fam",43,5,TRUE,FALSE,1205,253
7,6,"fam",44,1,TRUE,TRUE,1103,182
7,6,"fam",45,5,TRUE,TRUE,1438,230
7,6,"fam",46,5,TRUE,FALSE,1152,222
7,6,"fam",47,5,TRUE,TRUE,1063,158
7,6,"fam",48,8,TRUE,TRUE,1422,301
7,6,"fam",49,1,FALSE,FALSE,1398,334
7,6,"fam",50,8,TRUE,FALSE,1268,246
7,6,"fam",51,3,FALSE,FALSE,1168,190
7,6,"fam",52,5,FALSE,FALSE,951,182
7,6,"fam",53,1,TRUE,TRUE,1019,190
7,6,"fam",54,1,TRUE,TRUE,1227,165
7,6,"fam",55,3,TRUE,FALSE,1519,150
7,6,"fam",56,3,TRUE,TRUE,1363,118
7,6,"fam",57,8,TRUE,TRUE,976,174
7,6,"fam",58,1,FALSE,FALSE,1060,134
7,6,"fam",59,1,FALSE,FALSE,1309,134
7,6,"fam",60,1,TRUE,TRUE,1161,150
7,6,"fam",61,1,FALSE,FALSE,1703,302
7,6,"fam",62,5,FALSE,FALSE,1261,645
7,6,"fam",63,5,TRUE,TRUE,879,198
7,6,"fam",64,3,TRUE,TRUE,1297,238
7,6,"fam",65,1,TRUE,TRUE,1431,158
7,6,"fam",66,5,TRUE,TRUE,1124,142
7,6,"fam",67,1,TRUE,TRUE,1103,143
7,6,"fam",68,1,TRUE,TRUE,1421,166
7,6,"fam",69,5,TRUE,FALSE,1025,134
7,6,"fam",70,1,TRUE,TRUE,1096,125
7,6,"fam",71,8,TRUE,TRUE,1274,133
7,6,"fam",72,8,TRUE,TRUE,1122,126
7,6,"fam",73,8,TRUE,TRUE,1200,126
7,6,"fam",74,3,TRUE,TRUE,1086,277
7,6,"fam",75,3,TRUE,TRUE,1186,158
7,6,"fam",76,8,TRUE,FALSE,1865,189
7,6,"fam",77,8,TRUE,TRUE,1248,294
7,6,"fam",78,8,TRUE,TRUE,1173,157
7,6,"fam",79,8,TRUE,TRUE,1164,134
7,6,"fam",80,1,TRUE,TRUE,1318,166
7,6,"fam",81,1,TRUE,TRUE,1007,246
7,6,"fam",82,3,TRUE,FALSE,1364,69
7,6,"fam",83,5,TRUE,TRUE,1416,182
7,6,"fam",84,3,TRUE,FALSE,1673,205
7,6,"fam",85,1,TRUE,TRUE,1316,165
7,6,"fam",86,3,TRUE,TRUE,1273,181
7,6,"fam",87,3,FALSE,FALSE,1522,157
7,6,"fam",88,5,TRUE,FALSE,1705,205
7,6,"fam",89,1,FALSE,FALSE,1626,231
7,6,"fam",90,3,TRUE,TRUE,1179,149
7,6,"fam",91,3,FALSE,FALSE,1188,166
7,6,"fam",92,3,TRUE,FALSE,1759,205
7,6,"fam",93,1,TRUE,TRUE,1297,165
7,6,"fam",94,8,TRUE,FALSE,1244,126
7,6,"fam",95,1,FALSE,FALSE,1444,246
7,6,"fam",96,1,FALSE,FALSE,1107,205
7,6,"fam",97,5,TRUE,FALSE,969,141
7,6,"fam",98,1,TRUE,TRUE,1156,229
7,6,"fam",99,3,FALSE,FALSE,1063,158
7,6,"fam",100,1,TRUE,TRUE,823,101
7,6,"fam",101,5,TRUE,TRUE,1251,238
7,6,"fam",102,5,TRUE,FALSE,1410,509
7,6,"fam",103,8,TRUE,FALSE,1104,93
7,6,"fam",104,3,FALSE,FALSE,1449,396
7,6,"fam",105,5,TRUE,TRUE,1155,109
7,6,"fam",106,3,TRUE,TRUE,1706,181
7,6,"fam",107,8,FALSE,FALSE,1228,263
7,6,"fam",108,5,TRUE,FALSE,1260,197
7,6,"fam",109,5,TRUE,FALSE,1065,254
7,6,"fam",110,5,FALSE,FALSE,1313,301
7,6,"fam",111,8,TRUE,TRUE,1251,117
7,6,"fam",112,8,TRUE,TRUE,1448,205
7,6,"fam",113,5,TRUE,FALSE,1283,285
7,6,"fam",114,3,TRUE,FALSE,1698,141
7,6,"fam",115,5,TRUE,TRUE,1084,181
7,6,"fam",116,3,TRUE,FALSE,1246,165
7,6,"fam",117,8,TRUE,TRUE,882,172
7,6,"fam",118,5,TRUE,FALSE,984,294
7,6,"fam",119,8,TRUE,TRUE,1467,142
7,6,"fam",120,8,TRUE,TRUE,1213,213
7,6,"fam",121,1,FALSE,FALSE,1214,85
7,6,"fam",122,5,TRUE,FALSE,1387,236
7,6,"fam",123,5,TRUE,FALSE,1157,150
7,6,"fam",124,3,TRUE,TRUE,1454,141
7,6,"fam",125,3,TRUE,FALSE,1644,261
7,6,"fam",126,8,TRUE,TRUE,1289,133
7,6,"fam",127,1,TRUE,TRUE,961,165
7,6,"fam",128,8,TRUE,TRUE,974,165
7,6,"fam",129,1,TRUE,TRUE,1030,534
7,6,"fam",130,1,TRUE,TRUE,1168,133
7,6,"fam",131,3,TRUE,FALSE,1309,206
7,6,"fam",132,8,FALSE,FALSE,1084,124
7,6,"fam",133,3,TRUE,FALSE,1203,101
7,6,"fam",134,8,TRUE,TRUE,1220,173
7,6,"fam",135,8,TRUE,FALSE,1474,180
7,6,"fam",136,8,TRUE,TRUE,1437,117
7,6,"fam",137,5,TRUE,FALSE,1621,445
7,6,"fam",138,5,TRUE,FALSE,1141,196
7,6,"fam",139,1,TRUE,TRUE,1201,118
7,6,"fam",140,5,TRUE,TRUE,1292,148
7,6,"fam",141,8,TRUE,TRUE,1260,205
7,6,"fam",142,3,TRUE,TRUE,1337,181
7,6,"fam",143,3,TRUE,FALSE,942,141
7,6,"fam",144,5,TRUE,FALSE,1510,324
7,7,"omm",1,3,TRUE,TRUE,896,247
7,7,"omm",2,3,TRUE,TRUE,887,253
7,7,"omm",3,5,TRUE,TRUE,978,222
7,7,"omm",4,3,TRUE,TRUE,968,230
7,7,"omm",5,1,TRUE,TRUE,1090,190
7,7,"omm",6,3,TRUE,TRUE,922,422
7,7,"omm",7,3,TRUE,TRUE,973,239
7,7,"omm",8,1,TRUE,TRUE,1076,229
7,7,"omm",9,3,TRUE,TRUE,863,270
7,7,"omm",10,5,TRUE,TRUE,902,246
7,7,"omm",11,1,TRUE,TRUE,1744,198
7,7,"omm",12,1,TRUE,TRUE,1109,223
7,7,"omm",13,5,TRUE,TRUE,1077,470
7,7,"omm",14,5,TRUE,TRUE,765,398
7,7,"omm",15,1,TRUE,TRUE,1007,437
7,7,"omm",16,1,TRUE,TRUE,959,486
7,7,"omm",17,3,TRUE,TRUE,881,414
7,7,"omm",18,1,TRUE,TRUE,878,454
7,7,"omm",19,1,TRUE,TRUE,1046,357
7,7,"omm",20,8,TRUE,TRUE,1460,309
7,7,"omm",21,3,TRUE,FALSE,1239,119
7,7,"omm",22,3,TRUE,TRUE,1106,294
7,7,"omm",23,8,TRUE,TRUE,1044,327
7,7,"omm",24,3,TRUE,TRUE,787,413
7,7,"omm",25,8,TRUE,TRUE,1068,414
7,7,"omm",26,1,TRUE,TRUE,985,511
7,7,"omm",27,8,TRUE,TRUE,1085,310
7,7,"omm",28,1,TRUE,TRUE,905,262
7,7,"omm",29,5,TRUE,TRUE,823,223
7,7,"omm",30,8,TRUE,TRUE,1316,551
7,7,"omm",31,8,TRUE,TRUE,1027,190
7,7,"omm",32,3,TRUE,TRUE,1060,215
7,7,"omm",33,1,TRUE,TRUE,1216,550
7,7,"omm",34,5,TRUE,TRUE,1063,574
7,7,"omm",35,8,TRUE,TRUE,1028,262
7,7,"omm",36,8,TRUE,TRUE,959,535
7,7,"omm",37,1,TRUE,TRUE,1011,495
7,7,"omm",38,1,TRUE,TRUE,969,310
7,7,"omm",39,3,TRUE,TRUE,928,294
7,7,"omm",40,3,TRUE,TRUE,991,373
7,7,"omm",41,3,TRUE,TRUE,847,454
7,7,"omm",42,8,TRUE,TRUE,911,437
7,7,"omm",43,5,TRUE,TRUE,897,519
7,7,"omm",44,1,TRUE,TRUE,862,278
7,7,"omm",45,5,TRUE,TRUE,921,270
7,7,"omm",46,5,TRUE,TRUE,710,438
7,7,"omm",47,8,TRUE,TRUE,888,238
7,7,"omm",48,8,TRUE,TRUE,901,349
7,7,"omm",49,5,TRUE,TRUE,1050,309
7,7,"omm",50,8,TRUE,TRUE,924,245
7,7,"omm",51,8,TRUE,TRUE,1081,278
7,7,"omm",52,1,TRUE,TRUE,1260,230
7,7,"omm",53,1,TRUE,TRUE,1072,278
7,7,"omm",54,5,TRUE,TRUE,1169,478
7,7,"omm",55,8,TRUE,TRUE,892,239
7,7,"omm",56,8,TRUE,TRUE,1107,254
7,7,"omm",57,5,TRUE,TRUE,857,229
7,7,"omm",58,3,TRUE,TRUE,681,246
7,7,"omm",59,8,TRUE,TRUE,915,565
7,7,"omm",60,1,TRUE,TRUE,1151,341
7,7,"omm",61,5,TRUE,TRUE,898,206
7,7,"omm",62,1,TRUE,TRUE,1300,326
7,7,"omm",63,5,TRUE,TRUE,797,398
7,7,"omm",64,5,TRUE,TRUE,771,549
7,7,"omm",65,3,TRUE,TRUE,923,469
7,7,"omm",66,5,TRUE,TRUE,823,262
7,7,"omm",67,3,TRUE,TRUE,1872,206
7,7,"omm",68,3,TRUE,TRUE,947,318
7,7,"omm",69,1,TRUE,TRUE,806,182
7,7,"omm",70,8,TRUE,TRUE,1208,326
7,7,"omm",71,1,TRUE,TRUE,842,471
7,7,"omm",72,8,TRUE,TRUE,938,246
7,7,"omm",73,3,TRUE,TRUE,813,230
7,7,"omm",74,8,TRUE,TRUE,800,237
7,7,"omm",75,5,TRUE,TRUE,789,318
7,7,"omm",76,1,TRUE,TRUE,1325,214
7,7,"omm",77,3,TRUE,TRUE,911,293
7,7,"omm",78,1,TRUE,TRUE,1097,205
7,7,"omm",79,3,TRUE,TRUE,1478,133
7,7,"omm",80,3,TRUE,TRUE,1484,150
7,7,"omm",81,5,TRUE,TRUE,845,214
7,7,"omm",82,3,TRUE,TRUE,1183,142
7,7,"omm",83,1,TRUE,TRUE,833,159
7,7,"omm",84,3,TRUE,TRUE,854,141
7,7,"omm",85,8,TRUE,FALSE,1636,149
7,7,"omm",86,1,TRUE,TRUE,1013,156
7,7,"omm",87,1,TRUE,TRUE,1020,133
7,7,"omm",88,5,TRUE,TRUE,915,189
7,7,"omm",89,5,TRUE,TRUE,940,126
7,7,"omm",90,3,TRUE,TRUE,1086,101
7,7,"omm",91,1,TRUE,TRUE,1014,158
7,7,"omm",92,8,TRUE,TRUE,969,190
7,7,"omm",93,8,TRUE,TRUE,1032,205
7,7,"omm",94,8,TRUE,TRUE,1043,293
7,7,"omm",95,5,TRUE,TRUE,775,501
7,7,"omm",96,8,TRUE,TRUE,1046,165
7,7,"omm",97,3,TRUE,TRUE,892,269
7,7,"omm",98,8,TRUE,TRUE,945,118
7,7,"omm",99,5,TRUE,TRUE,878,141
7,7,"omm",100,1,TRUE,TRUE,902,197
7,7,"omm",101,8,TRUE,TRUE,3239,213
7,7,"omm",102,3,TRUE,TRUE,1214,117
7,7,"omm",103,3,TRUE,TRUE,976,189
7,7,"omm",104,8,TRUE,TRUE,995,181
7,7,"omm",105,3,TRUE,TRUE,833,389
7,7,"omm",106,8,TRUE,TRUE,1549,260
7,7,"omm",107,3,TRUE,TRUE,886,206
7,7,"omm",108,5,TRUE,TRUE,890,220
7,7,"omm",109,1,TRUE,TRUE,849,405
7,7,"omm",110,5,TRUE,TRUE,879,237
7,7,"omm",111,5,TRUE,TRUE,739,197
7,7,"omm",112,1,TRUE,TRUE,814,197
7,7,"omm",113,1,TRUE,TRUE,638,413
7,7,"omm",114,5,TRUE,TRUE,1095,205
7,7,"omm",115,3,TRUE,TRUE,778,277
7,7,"omm",116,3,TRUE,TRUE,1158,269
7,7,"omm",117,5,TRUE,TRUE,1064,181
7,7,"omm",118,5,TRUE,TRUE,898,229
7,7,"omm",119,5,TRUE,TRUE,928,421
7,7,"omm",120,8,TRUE,TRUE,1057,205
7,7,"omm",121,8,TRUE,TRUE,822,396
7,7,"omm",122,5,TRUE,TRUE,801,189
7,7,"omm",123,8,TRUE,TRUE,879,237
7,7,"omm",124,5,TRUE,TRUE,847,1316
7,7,"omm",125,5,TRUE,TRUE,912,150
7,7,"omm",126,8,TRUE,TRUE,1048,220
7,7,"omm",127,5,TRUE,TRUE,995,533
7,7,"omm",128,5,TRUE,TRUE,379,468
7,7,"omm",129,1,TRUE,TRUE,892,205
7,7,"omm",130,1,TRUE,TRUE,1145,165
7,7,"omm",131,5,TRUE,TRUE,909,254
7,7,"omm",132,3,TRUE,TRUE,962,389
7,7,"omm",133,3,TRUE,TRUE,854,493
7,7,"omm",134,1,TRUE,TRUE,908,196
7,7,"omm",135,8,TRUE,TRUE,842,294
7,7,"omm",136,3,TRUE,TRUE,1008,301
7,7,"omm",137,8,TRUE,TRUE,884,301
7,7,"omm",138,3,TRUE,TRUE,887,356
7,7,"omm",139,1,TRUE,TRUE,885,468
7,7,"omm",140,1,TRUE,TRUE,997,164
7,7,"omm",141,8,TRUE,TRUE,1001,189
7,7,"omm",142,8,TRUE,TRUE,919,348
7,7,"omm",143,5,TRUE,TRUE,1307,133
7,7,"omm",144,1,TRUE,TRUE,721,149
7,8,"control",1,8,TRUE,FALSE,1271,102
7,8,"control",2,8,TRUE,TRUE,955,87
7,8,"control",3,5,TRUE,TRUE,871,191
7,8,"control",4,5,TRUE,TRUE,948,94
7,8,"control",5,1,TRUE,TRUE,1072,103
7,8,"control",6,1,TRUE,TRUE,835,70
7,8,"control",7,3,TRUE,TRUE,591,87
7,8,"control",8,5,TRUE,TRUE,1884,102
7,8,"control",9,5,TRUE,TRUE,1010,78
7,8,"control",10,1,FALSE,FALSE,1241,142
7,8,"control",11,1,TRUE,FALSE,1598,95
7,8,"control",12,8,TRUE,TRUE,1147,71
7,8,"control",13,5,TRUE,TRUE,949,110
7,8,"control",14,8,TRUE,TRUE,1334,94
7,8,"control",15,1,TRUE,TRUE,884,78
7,8,"control",16,1,FALSE,FALSE,1021,103
7,8,"control",17,1,FALSE,FALSE,828,79
7,8,"control",18,3,TRUE,TRUE,851,134
7,8,"control",19,5,TRUE,TRUE,1188,142
7,8,"control",20,8,TRUE,TRUE,1420,110
7,8,"control",21,5,TRUE,TRUE,1165,94
7,8,"control",22,8,TRUE,TRUE,958,102
7,8,"control",23,5,TRUE,TRUE,971,110
7,8,"control",24,8,TRUE,TRUE,860,62
7,8,"control",25,1,TRUE,TRUE,1005,382
7,8,"control",26,5,TRUE,FALSE,951,2446
7,8,"control",27,5,TRUE,TRUE,1195,79
7,8,"control",28,3,FALSE,FALSE,996,183
7,8,"control",29,1,TRUE,TRUE,956,95
7,8,"control",30,5,TRUE,FALSE,2426,87
7,8,"control",31,3,TRUE,FALSE,806,102
7,8,"control",32,1,FALSE,FALSE,1109,597
7,8,"control",33,3,TRUE,FALSE,2544,374
7,8,"control",34,5,TRUE,TRUE,851,110
7,8,"control",35,8,TRUE,FALSE,3739,190
7,8,"control",36,5,TRUE,TRUE,950,166
7,8,"control",37,1,TRUE,TRUE,1169,134
7,8,"control",38,5,TRUE,FALSE,2644,134
7,8,"control",39,1,TRUE,TRUE,802,230
7,8,"control",40,1,TRUE,TRUE,947,118
7,8,"control",41,1,TRUE,TRUE,906,95
7,8,"control",42,3,TRUE,TRUE,846,269
7,8,"control",43,5,TRUE,TRUE,706,142
7,8,"control",44,5,TRUE,TRUE,1039,134
7,8,"control",45,1,TRUE,TRUE,996,86
7,8,"control",46,3,TRUE,FALSE,1574,109
7,8,"control",47,3,TRUE,TRUE,861,175
7,8,"control",48,1,TRUE,TRUE,651,93
7,8,"control",49,5,FALSE,FALSE,1415,134
7,8,"control",50,8,TRUE,TRUE,681,237
7,8,"control",51,5,TRUE,TRUE,900,245
7,8,"control",52,8,TRUE,TRUE,845,174
7,8,"control",53,3,TRUE,TRUE,1506,102
7,8,"control",54,1,TRUE,TRUE,795,134
7,8,"control",55,8,TRUE,TRUE,834,101
7,8,"control",56,3,TRUE,TRUE,1137,95
7,8,"control",57,8,TRUE,FALSE,1498,239
7,8,"control",58,3,TRUE,TRUE,1143,111
7,8,"control",59,8,TRUE,TRUE,933,94
7,8,"control",60,8,TRUE,TRUE,981,142
7,8,"control",61,8,TRUE,FALSE,1166,150
7,8,"control",62,8,TRUE,TRUE,973,79
7,8,"control",63,5,TRUE,TRUE,891,134
7,8,"control",64,1,TRUE,TRUE,1277,118
7,8,"control",65,5,TRUE,TRUE,910,110
7,8,"control",66,8,TRUE,TRUE,971,101
7,8,"control",67,3,TRUE,TRUE,881,78
7,8,"control",68,1,TRUE,TRUE,862,110
7,8,"control",69,8,TRUE,TRUE,1166,110
7,8,"control",70,1,TRUE,TRUE,1223,101
7,8,"control",71,3,TRUE,TRUE,975,158
7,8,"control",72,8,TRUE,TRUE,1044,109
7,8,"control",73,8,TRUE,TRUE,762,222
7,8,"control",74,1,TRUE,FALSE,2117,174
7,8,"control",75,1,TRUE,TRUE,744,70
7,8,"control",76,8,FALSE,FALSE,1906,125
7,8,"control",77,5,TRUE,TRUE,669,71
7,8,"control",78,5,TRUE,TRUE,884,125
7,8,"control",79,8,TRUE,TRUE,1007,157
7,8,"control",80,5,TRUE,TRUE,2039,109
7,8,"control",81,8,TRUE,TRUE,956,86
7,8,"control",82,3,TRUE,TRUE,767,79
7,8,"control",83,1,TRUE,TRUE,762,86
7,8,"control",84,3,TRUE,TRUE,1009,69
7,8,"control",85,1,TRUE,TRUE,971,102
7,8,"control",86,3,TRUE,TRUE,950,86
7,8,"control",87,5,TRUE,TRUE,1002,69
7,8,"control",88,8,TRUE,TRUE,560,78
7,8,"control",89,5,TRUE,TRUE,705,222
7,8,"control",90,3,TRUE,TRUE,1042,92
7,8,"control",91,8,TRUE,TRUE,1150,214
7,8,"control",92,8,TRUE,TRUE,908,62
7,8,"control",93,3,TRUE,TRUE,1363,101
7,8,"control",94,8,TRUE,TRUE,1046,85
7,8,"control",95,5,TRUE,TRUE,968,77
7,8,"control",96,1,TRUE,TRUE,897,62
7,8,"control",97,5,TRUE,TRUE,1021,78
7,8,"control",98,3,TRUE,TRUE,653,86
7,8,"control",99,1,TRUE,TRUE,470,63
7,8,"control",100,8,TRUE,TRUE,863,55
7,8,"control",101,5,TRUE,TRUE,1113,71
7,8,"control",102,1,TRUE,TRUE,593,86
7,8,"control",103,1,TRUE,TRUE,482,61
7,8,"control",104,3,TRUE,TRUE,575,78
7,8,"control",105,3,TRUE,TRUE,499,70
7,8,"control",106,3,TRUE,TRUE,887,78
7,8,"control",107,3,TRUE,TRUE,984,46
7,8,"control",108,1,FALSE,FALSE,1314,62
7,8,"control",109,3,TRUE,TRUE,736,117
7,8,"control",110,3,TRUE,TRUE,900,157
7,8,"control",111,1,TRUE,TRUE,683,76
7,8,"control",112,3,TRUE,TRUE,1294,93
7,8,"control",113,3,TRUE,TRUE,699,37
7,8,"control",114,3,TRUE,TRUE,830,93
7,8,"control",115,3,TRUE,TRUE,625,94
7,8,"control",116,5,TRUE,TRUE,733,36
7,8,"control",117,5,TRUE,TRUE,786,62
7,8,"control",118,8,TRUE,TRUE,847,148
7,8,"control",119,5,TRUE,TRUE,436,61
7,8,"control",120,8,TRUE,TRUE,892,55
7,8,"control",121,5,TRUE,TRUE,647,100
7,8,"control",122,8,TRUE,TRUE,727,78
7,8,"control",123,1,TRUE,TRUE,414,69
7,8,"control",124,3,TRUE,FALSE,1535,78
7,8,"control",125,3,TRUE,TRUE,354,54
7,8,"control",126,1,FALSE,FALSE,399,61
7,8,"control",127,1,TRUE,TRUE,553,45
7,8,"control",128,1,TRUE,TRUE,605,108
7,8,"control",129,5,TRUE,TRUE,584,53
7,8,"control",130,1,TRUE,TRUE,448,173
7,8,"control",131,1,TRUE,TRUE,1019,77
7,8,"control",132,3,TRUE,TRUE,492,71
7,8,"control",133,8,TRUE,TRUE,736,45
7,8,"control",134,8,TRUE,TRUE,906,78
7,8,"control",135,5,TRUE,TRUE,604,77
7,8,"control",136,8,TRUE,TRUE,864,77
7,8,"control",137,8,TRUE,FALSE,1511,181
7,8,"control",138,5,TRUE,TRUE,772,53
7,8,"control",139,8,TRUE,TRUE,876,158
7,8,"control",140,5,TRUE,TRUE,972,77
7,8,"control",141,3,TRUE,TRUE,585,70
7,8,"control",142,3,TRUE,TRUE,437,69
7,8,"control",143,3,TRUE,TRUE,600,54
7,8,"control",144,3,TRUE,TRUE,544,61
7,9,"fam",1,5,TRUE,TRUE,1301,493
7,9,"fam",2,1,TRUE,TRUE,1153,511
7,9,"fam",3,1,TRUE,TRUE,1219,447
7,9,"fam",4,3,FALSE,FALSE,1435,631
7,9,"fam",5,3,TRUE,TRUE,1434,319
7,9,"fam",6,3,TRUE,TRUE,873,557
7,9,"fam",7,3,TRUE,TRUE,1333,502
7,9,"fam",8,3,TRUE,FALSE,1328,645
7,9,"fam",9,5,TRUE,TRUE,1286,222
7,9,"fam",10,5,TRUE,TRUE,1276,437
7,9,"fam",11,5,TRUE,TRUE,888,645
7,9,"fam",12,8,TRUE,TRUE,1032,366
7,9,"fam",13,5,TRUE,TRUE,1373,359
7,9,"fam",14,8,TRUE,TRUE,1277,326
7,9,"fam",15,5,TRUE,TRUE,656,886
7,9,"fam",16,5,TRUE,TRUE,997,573
7,9,"fam",17,8,TRUE,TRUE,901,254
7,9,"fam",18,8,TRUE,TRUE,1012,567
7,9,"fam",19,1,TRUE,TRUE,1548,662
7,9,"fam",20,5,TRUE,TRUE,865,566
7,9,"fam",21,3,TRUE,TRUE,1093,430
7,9,"fam",22,3,TRUE,TRUE,1082,246
7,9,"fam",23,8,TRUE,TRUE,934,414
7,9,"fam",24,3,FALSE,FALSE,1319,415
7,9,"fam",25,5,TRUE,TRUE,1214,302
7,9,"fam",26,5,TRUE,TRUE,822,231
7,9,"fam",27,1,TRUE,TRUE,1694,637
7,9,"fam",28,8,TRUE,TRUE,968,253
7,9,"fam",29,5,TRUE,TRUE,994,535
7,9,"fam",30,1,TRUE,TRUE,1354,782
7,9,"fam",31,5,TRUE,TRUE,855,214
7,9,"fam",32,1,TRUE,TRUE,1257,886
7,9,"fam",33,1,FALSE,FALSE,1196,NA
7,9,"fam",34,3,TRUE,FALSE,1897,406
7,9,"fam",35,3,TRUE,FALSE,1776,462
7,9,"fam",36,5,TRUE,TRUE,1005,556
7,9,"fam",37,1,FALSE,FALSE,2256,470
7,9,"fam",38,5,TRUE,TRUE,1618,182
7,9,"fam",39,1,TRUE,FALSE,1334,830
7,9,"fam",40,3,TRUE,FALSE,1103,630
7,9,"fam",41,8,TRUE,TRUE,1309,246
7,9,"fam",42,5,TRUE,TRUE,928,253
7,9,"fam",43,8,TRUE,TRUE,1200,294
7,9,"fam",44,8,TRUE,TRUE,786,246
7,9,"fam",45,5,TRUE,TRUE,1121,342
7,9,"fam",46,8,TRUE,TRUE,1144,566
7,9,"fam",47,5,TRUE,TRUE,942,270
7,9,"fam",48,3,TRUE,TRUE,1121,461
7,9,"fam",49,3,TRUE,FALSE,1833,470
7,9,"fam",50,3,TRUE,TRUE,837,390
7,9,"fam",51,8,TRUE,TRUE,937,214
7,9,"fam",52,1,FALSE,FALSE,2121,501
7,9,"fam",53,5,TRUE,TRUE,867,398
7,9,"fam",54,1,TRUE,TRUE,2189,351
7,9,"fam",55,1,TRUE,TRUE,1115,541
7,9,"fam",56,3,TRUE,TRUE,734,287
7,9,"fam",57,8,TRUE,TRUE,919,333
7,9,"fam",58,3,TRUE,TRUE,1402,565
7,9,"fam",59,1,TRUE,TRUE,869,366
7,9,"fam",60,5,TRUE,FALSE,2150,285
7,9,"fam",61,5,TRUE,TRUE,935,222
7,9,"fam",62,3,TRUE,TRUE,834,606
7,9,"fam",63,1,TRUE,TRUE,745,173
7,9,"fam",64,1,TRUE,TRUE,928,391
7,9,"fam",65,1,FALSE,FALSE,917,942
7,9,"fam",66,8,TRUE,TRUE,1063,334
7,9,"fam",67,1,FALSE,FALSE,1953,1365
7,9,"fam",68,3,TRUE,TRUE,1054,230
7,9,"fam",69,3,TRUE,TRUE,1757,222
7,9,"fam",70,8,TRUE,TRUE,893,367
7,9,"fam",71,5,FALSE,FALSE,1407,709
7,9,"fam",72,5,FALSE,FALSE,1015,263
7,9,"fam",73,3,TRUE,TRUE,975,326
7,9,"fam",74,8,TRUE,TRUE,715,397
7,9,"fam",75,8,TRUE,TRUE,992,197
7,9,"fam",76,5,TRUE,FALSE,999,381
7,9,"fam",77,3,TRUE,TRUE,1069,237
7,9,"fam",78,1,TRUE,TRUE,999,381
7,9,"fam",79,5,TRUE,TRUE,762,414
7,9,"fam",80,3,TRUE,FALSE,741,485
7,9,"fam",81,3,TRUE,TRUE,838,398
7,9,"fam",82,8,TRUE,FALSE,948,NA
7,9,"fam",83,8,TRUE,TRUE,1047,277
7,9,"fam",84,8,TRUE,TRUE,873,382
7,9,"fam",85,8,TRUE,TRUE,782,214
7,9,"fam",86,3,TRUE,TRUE,1106,405
7,9,"fam",87,8,TRUE,TRUE,1826,294
7,9,"fam",88,3,TRUE,TRUE,580,229
7,9,"fam",89,3,FALSE,FALSE,1157,405
7,9,"fam",90,8,FALSE,FALSE,932,397
7,9,"fam",91,5,TRUE,TRUE,778,182
7,9,"fam",92,1,TRUE,FALSE,1379,430
7,9,"fam",93,8,TRUE,TRUE,1008,365
7,9,"fam",94,8,TRUE,TRUE,797,189
7,9,"fam",95,1,TRUE,TRUE,849,214
7,9,"fam",96,1,TRUE,TRUE,1132,165
7,9,"fam",97,3,FALSE,FALSE,2985,2580
7,9,"fam",98,8,TRUE,TRUE,1279,277
7,9,"fam",99,8,TRUE,TRUE,790,462
7,9,"fam",100,5,TRUE,FALSE,1102,189
7,9,"fam",101,1,FALSE,FALSE,1685,173
7,9,"fam",102,1,TRUE,FALSE,1340,149
7,9,"fam",103,1,TRUE,TRUE,981,349
7,9,"fam",104,8,TRUE,TRUE,1122,174
7,9,"fam",105,5,TRUE,TRUE,663,53
7,9,"fam",106,3,TRUE,TRUE,1160,349
7,9,"fam",107,1,TRUE,TRUE,1122,333
7,9,"fam",108,5,TRUE,FALSE,856,101
7,9,"fam",109,1,TRUE,FALSE,1259,261
7,9,"fam",110,5,TRUE,TRUE,869,77
7,9,"fam",111,5,TRUE,TRUE,1183,277
7,9,"fam",112,3,TRUE,TRUE,968,173
7,9,"fam",113,5,TRUE,TRUE,1096,246
7,9,"fam",114,1,TRUE,TRUE,1583,349
7,9,"fam",115,1,TRUE,TRUE,1105,214
7,9,"fam",116,8,TRUE,TRUE,1267,293
7,9,"fam",117,8,TRUE,FALSE,984,301
7,9,"fam",118,3,TRUE,TRUE,866,245
7,9,"fam",119,3,TRUE,TRUE,773,70
7,9,"fam",120,5,TRUE,TRUE,1029,301
7,9,"fam",121,1,TRUE,TRUE,1003,53
7,9,"fam",122,8,TRUE,TRUE,833,165
7,9,"fam",123,8,TRUE,TRUE,947,318
7,9,"fam",124,3,TRUE,TRUE,795,197
7,9,"fam",125,3,TRUE,TRUE,601,189
7,9,"fam",126,3,TRUE,TRUE,1305,77
7,9,"fam",127,1,TRUE,TRUE,806,78
7,9,"fam",128,1,TRUE,TRUE,991,197
7,9,"fam",129,8,TRUE,FALSE,1440,509
7,9,"fam",130,1,FALSE,FALSE,1722,285
7,9,"fam",131,1,TRUE,TRUE,1027,269
7,9,"fam",132,1,TRUE,TRUE,893,165
7,9,"fam",133,8,TRUE,TRUE,720,509
7,9,"fam",134,1,TRUE,TRUE,873,149
7,9,"fam",135,5,TRUE,TRUE,866,133
7,9,"fam",136,3,TRUE,TRUE,859,197
7,9,"fam",137,8,TRUE,TRUE,942,374
7,9,"fam",138,8,TRUE,TRUE,701,149
7,9,"fam",139,8,TRUE,TRUE,805,44
7,9,"fam",140,5,TRUE,TRUE,726,68
7,9,"fam",141,5,TRUE,TRUE,1002,61
7,9,"fam",142,1,TRUE,TRUE,970,12
7,9,"fam",143,3,TRUE,TRUE,984,53
7,9,"fam",144,5,TRUE,TRUE,514,261
7,62,"control",1,5,TRUE,TRUE,1065,431
7,62,"control",2,5,TRUE,TRUE,870,518
7,62,"control",3,1,TRUE,FALSE,2234,311
7,62,"control",4,8,TRUE,TRUE,1994,462
7,62,"control",5,3,TRUE,TRUE,912,326
7,62,"control",6,5,TRUE,TRUE,856,358
7,62,"control",7,8,TRUE,TRUE,1009,623
7,62,"control",8,3,TRUE,FALSE,1787,2158
7,62,"control",9,8,TRUE,TRUE,1009,934
7,62,"control",10,5,TRUE,TRUE,1487,399
7,62,"control",11,3,TRUE,TRUE,774,686
7,62,"control",12,3,TRUE,TRUE,999,470
7,62,"control",13,5,TRUE,TRUE,1031,590
7,62,"control",14,3,TRUE,FALSE,1411,2150
7,62,"control",15,8,TRUE,TRUE,1076,342
7,62,"control",16,5,TRUE,TRUE,1163,438
7,62,"control",17,1,FALSE,FALSE,1968,527
7,62,"control",18,1,TRUE,FALSE,1913,670
7,62,"control",19,3,TRUE,FALSE,1315,1254
7,62,"control",20,8,TRUE,TRUE,1608,558
7,62,"control",21,1,TRUE,TRUE,1310,662
7,62,"control",22,5,TRUE,TRUE,795,710
7,62,"control",23,3,TRUE,FALSE,1844,351
7,62,"control",24,8,TRUE,TRUE,1711,318
7,62,"control",25,3,TRUE,TRUE,899,519
7,62,"control",26,8,TRUE,TRUE,1030,406
7,62,"control",27,3,TRUE,TRUE,824,366
7,62,"control",28,3,TRUE,TRUE,486,341
7,62,"control",29,3,TRUE,FALSE,2610,326
7,62,"control",30,3,TRUE,TRUE,1103,318
7,62,"control",31,8,TRUE,FALSE,1463,239
7,62,"control",32,1,TRUE,TRUE,1358,590
7,62,"control",33,8,TRUE,TRUE,1095,375
7,62,"control",34,5,TRUE,TRUE,930,310
7,62,"control",35,8,TRUE,TRUE,1092,263
7,62,"control",36,3,TRUE,TRUE,1323,254
7,62,"control",37,8,TRUE,TRUE,1106,494
7,62,"control",38,1,TRUE,TRUE,1067,518
7,62,"control",39,1,TRUE,TRUE,1062,574
7,62,"control",40,8,TRUE,FALSE,1801,574
7,62,"control",41,1,TRUE,TRUE,1420,470
7,62,"control",42,3,TRUE,FALSE,1604,598
7,62,"control",43,1,TRUE,FALSE,1895,127
7,62,"control",44,1,TRUE,TRUE,1598,431
7,62,"control",45,5,TRUE,FALSE,1438,895
7,62,"control",46,5,TRUE,TRUE,1251,301
7,62,"control",47,1,TRUE,TRUE,1886,302
7,62,"control",48,5,TRUE,TRUE,487,438
7,62,"control",49,5,TRUE,TRUE,731,383
7,62,"control",50,5,TRUE,TRUE,759,366
7,62,"control",51,5,TRUE,TRUE,882,286
7,62,"control",52,3,FALSE,FALSE,2400,806
7,62,"control",53,3,TRUE,FALSE,1204,263
7,62,"control",54,5,TRUE,TRUE,559,478
7,62,"control",55,8,TRUE,TRUE,950,286
7,62,"control",56,3,TRUE,FALSE,1405,1294
7,62,"control",57,1,TRUE,FALSE,1059,582
7,62,"control",58,3,TRUE,FALSE,1550,341
7,62,"control",59,5,TRUE,TRUE,740,438
7,62,"control",60,1,TRUE,TRUE,1010,374
7,62,"control",61,3,TRUE,TRUE,1151,327
7,62,"control",62,3,TRUE,TRUE,1369,557
7,62,"control",63,8,TRUE,TRUE,948,278
7,62,"control",64,3,TRUE,FALSE,1475,1822
7,62,"control",65,5,TRUE,TRUE,1034,174
7,62,"control",66,5,TRUE,TRUE,1988,117
7,62,"control",67,3,TRUE,TRUE,793,349
7,62,"control",68,8,TRUE,TRUE,975,326
7,62,"control",69,5,TRUE,TRUE,517,270
7,62,"control",70,8,TRUE,TRUE,966,278
7,62,"control",71,3,TRUE,FALSE,2015,223
7,62,"control",72,5,FALSE,FALSE,1886,270
7,62,"control",73,8,TRUE,TRUE,816,326
7,62,"control",74,1,TRUE,TRUE,948,326
7,62,"control",75,1,TRUE,TRUE,1089,285
7,62,"control",76,3,TRUE,FALSE,1429,838
7,62,"control",77,5,TRUE,TRUE,608,406
7,62,"control",78,5,TRUE,TRUE,680,301
7,62,"control",79,1,TRUE,TRUE,623,447
7,62,"control",80,5,TRUE,TRUE,1216,110
7,62,"control",81,8,TRUE,TRUE,1007,478
7,62,"control",82,1,TRUE,TRUE,1382,261
7,62,"control",83,1,TRUE,TRUE,1268,94
7,62,"control",84,8,TRUE,TRUE,959,269
7,62,"control",85,5,TRUE,TRUE,782,110
7,62,"control",86,3,TRUE,TRUE,494,405
7,62,"control",87,8,TRUE,FALSE,1072,1198
7,62,"control",88,5,TRUE,TRUE,1366,293
7,62,"control",89,3,TRUE,TRUE,1360,262
7,62,"control",90,8,TRUE,TRUE,1184,494
7,62,"control",91,8,TRUE,TRUE,1732,446
7,62,"control",92,8,FALSE,FALSE,1417,366
7,62,"control",93,5,TRUE,TRUE,817,173
7,62,"control",94,1,TRUE,TRUE,694,341
7,62,"control",95,8,TRUE,TRUE,1539,237
7,62,"control",96,8,TRUE,FALSE,904,110
7,62,"control",97,1,TRUE,TRUE,327,335
7,62,"control",98,8,TRUE,TRUE,1582,301
7,62,"control",99,3,TRUE,TRUE,560,294
7,62,"control",100,5,FALSE,FALSE,2133,285
7,62,"control",101,8,TRUE,TRUE,800,405
7,62,"control",102,1,TRUE,TRUE,296,286
7,62,"control",103,5,TRUE,TRUE,1975,134
7,62,"control",104,5,TRUE,TRUE,1286,246
7,62,"control",105,1,TRUE,TRUE,765,125
7,62,"control",106,1,TRUE,TRUE,1269,421
7,62,"control",107,5,TRUE,TRUE,1077,430
7,62,"control",108,5,TRUE,FALSE,1692,605
7,62,"control",109,3,FALSE,FALSE,2018,341
7,62,"control",110,1,FALSE,FALSE,1424,1445
7,62,"control",111,1,TRUE,TRUE,701,109
7,62,"control",112,3,TRUE,FALSE,1247,341
7,62,"control",113,1,TRUE,FALSE,1472,517
7,62,"control",114,5,TRUE,TRUE,525,420
7,62,"control",115,3,TRUE,TRUE,1229,269
7,62,"control",116,3,TRUE,TRUE,1109,133
7,62,"control",117,1,TRUE,TRUE,1210,117
7,62,"control",118,8,TRUE,TRUE,1085,124
7,62,"control",119,8,TRUE,TRUE,1133,173
7,62,"control",120,3,TRUE,FALSE,2359,133
7,62,"control",121,5,TRUE,TRUE,952,269
7,62,"control",122,3,TRUE,FALSE,1109,437
7,62,"control",123,1,TRUE,TRUE,1008,101
7,62,"control",124,8,TRUE,FALSE,1267,77
7,62,"control",125,8,TRUE,TRUE,1119,429
7,62,"control",126,8,FALSE,FALSE,1391,1037
7,62,"control",127,8,TRUE,FALSE,1833,341
7,62,"control",128,3,TRUE,TRUE,509,101
7,62,"control",129,1,TRUE,TRUE,759,142
7,62,"control",130,8,TRUE,TRUE,966,421
7,62,"control",131,1,TRUE,TRUE,470,181
7,62,"control",132,1,TRUE,TRUE,495,398
7,62,"control",133,1,TRUE,TRUE,1657,308
7,62,"control",134,1,TRUE,TRUE,566,229
7,62,"control",135,3,TRUE,FALSE,1299,85
7,62,"control",136,5,TRUE,TRUE,2445,365
7,62,"control",137,8,TRUE,TRUE,825,85
7,62,"control",138,3,TRUE,TRUE,613,245
7,62,"control",139,8,TRUE,TRUE,979,357
7,62,"control",140,5,TRUE,TRUE,385,109
7,62,"control",141,1,TRUE,TRUE,890,93
7,62,"control",142,1,TRUE,FALSE,1170,101
7,62,"control",143,5,TRUE,TRUE,881,261
7,62,"control",144,1,TRUE,TRUE,533,237
7,10,"omm",1,8,TRUE,TRUE,1084,127
7,10,"omm",2,3,TRUE,TRUE,729,94
7,10,"omm",3,5,TRUE,TRUE,883,103
7,10,"omm",4,5,TRUE,TRUE,1005,182
7,10,"omm",5,8,TRUE,TRUE,941,159
7,10,"omm",6,3,TRUE,TRUE,1068,191
7,10,"omm",7,3,TRUE,TRUE,904,127
7,10,"omm",8,8,TRUE,TRUE,1350,207
7,10,"omm",9,5,TRUE,TRUE,1020,95
7,10,"omm",10,3,FALSE,FALSE,1506,1439
7,10,"omm",11,5,TRUE,TRUE,786,151
7,10,"omm",12,5,TRUE,TRUE,853,102
7,10,"omm",13,3,TRUE,TRUE,1126,190
7,10,"omm",14,1,TRUE,TRUE,850,118
7,10,"omm",15,5,TRUE,TRUE,753,88
7,10,"omm",16,8,TRUE,TRUE,1008,326
7,10,"omm",17,3,TRUE,TRUE,643,183
7,10,"omm",18,5,FALSE,FALSE,1409,598
7,10,"omm",19,5,TRUE,TRUE,562,119
7,10,"omm",20,3,TRUE,TRUE,825,158
7,10,"omm",21,8,TRUE,TRUE,966,151
7,10,"omm",22,3,TRUE,TRUE,452,86
7,10,"omm",23,5,TRUE,TRUE,677,71
7,10,"omm",24,3,TRUE,TRUE,695,142
7,10,"omm",25,5,TRUE,TRUE,1437,95
7,10,"omm",26,5,TRUE,TRUE,627,135
7,10,"omm",27,3,TRUE,TRUE,650,104
7,10,"omm",28,3,TRUE,FALSE,1351,382
7,10,"omm",29,1,TRUE,TRUE,902,174
7,10,"omm",30,3,TRUE,FALSE,1301,974
7,10,"omm",31,1,TRUE,TRUE,1040,166
7,10,"omm",32,3,TRUE,TRUE,964,87
7,10,"omm",33,1,TRUE,TRUE,961,95
7,10,"omm",34,3,TRUE,TRUE,531,94
7,10,"omm",35,5,TRUE,TRUE,928,94
7,10,"omm",36,8,TRUE,TRUE,930,102
7,10,"omm",37,8,TRUE,TRUE,975,159
7,10,"omm",38,1,TRUE,TRUE,601,133
7,10,"omm",39,8,TRUE,TRUE,1150,86
7,10,"omm",40,1,TRUE,TRUE,894,119
7,10,"omm",41,1,TRUE,TRUE,568,94
7,10,"omm",42,1,TRUE,TRUE,550,118
7,10,"omm",43,8,TRUE,TRUE,1493,206
7,10,"omm",44,8,TRUE,TRUE,1264,86
7,10,"omm",45,5,TRUE,TRUE,926,110
7,10,"omm",46,1,TRUE,TRUE,1991,173
7,10,"omm",47,1,TRUE,TRUE,1274,118
7,10,"omm",48,8,TRUE,TRUE,874,117
7,10,"omm",49,3,TRUE,TRUE,1101,230
7,10,"omm",50,1,TRUE,TRUE,1141,117
7,10,"omm",51,3,TRUE,TRUE,1496,366
7,10,"omm",52,3,TRUE,TRUE,980,118
7,10,"omm",53,5,TRUE,TRUE,836,127
7,10,"omm",54,5,TRUE,TRUE,1051,86
7,10,"omm",55,1,TRUE,TRUE,944,383
7,10,"omm",56,8,TRUE,TRUE,1064,150
7,10,"omm",57,5,TRUE,FALSE,759,151
7,10,"omm",58,5,TRUE,TRUE,312,757
7,10,"omm",59,5,TRUE,TRUE,1029,158
7,10,"omm",60,1,TRUE,TRUE,771,358
7,10,"omm",61,3,TRUE,TRUE,637,111
7,10,"omm",62,8,TRUE,TRUE,1282,174
7,10,"omm",63,3,TRUE,TRUE,601,702
7,10,"omm",64,3,TRUE,TRUE,853,118
7,10,"omm",65,3,TRUE,TRUE,904,901
7,10,"omm",66,1,TRUE,TRUE,878,255
7,10,"omm",67,5,TRUE,TRUE,970,277
7,10,"omm",68,8,TRUE,TRUE,952,93
7,10,"omm",69,8,TRUE,TRUE,1254,127
7,10,"omm",70,5,TRUE,TRUE,955,55
7,10,"omm",71,5,TRUE,TRUE,653,95
7,10,"omm",72,1,TRUE,TRUE,703,166
7,10,"omm",73,5,TRUE,TRUE,385,174
7,10,"omm",74,8,TRUE,TRUE,1066,286
7,10,"omm",75,8,TRUE,TRUE,607,662
7,10,"omm",76,3,TRUE,TRUE,81,102
7,10,"omm",77,5,TRUE,FALSE,1083,325
7,10,"omm",78,8,TRUE,TRUE,1059,183
7,10,"omm",79,8,TRUE,TRUE,960,462
7,10,"omm",80,3,TRUE,TRUE,1296,166
7,10,"omm",81,3,TRUE,TRUE,698,262
7,10,"omm",82,8,TRUE,TRUE,944,420
7,10,"omm",83,5,TRUE,TRUE,608,86
7,10,"omm",84,8,TRUE,TRUE,1071,477
7,10,"omm",85,8,TRUE,TRUE,816,237
7,10,"omm",86,8,TRUE,TRUE,993,317
7,10,"omm",87,1,TRUE,TRUE,847,157
7,10,"omm",88,3,TRUE,FALSE,1134,110
7,10,"omm",89,5,TRUE,TRUE,726,206
7,10,"omm",90,3,TRUE,TRUE,967,318
7,10,"omm",91,5,TRUE,TRUE,174,213
7,10,"omm",92,8,TRUE,TRUE,734,127
7,10,"omm",93,1,TRUE,TRUE,620,238
7,10,"omm",94,3,TRUE,TRUE,1142,134
7,10,"omm",95,1,TRUE,TRUE,528,70
7,10,"omm",96,1,TRUE,TRUE,799,558
7,10,"omm",97,5,TRUE,TRUE,553,117
7,10,"omm",98,3,TRUE,TRUE,608,198
7,10,"omm",99,5,TRUE,TRUE,714,190
7,10,"omm",100,1,TRUE,TRUE,919,173
7,10,"omm",101,1,TRUE,TRUE,979,262
7,10,"omm",102,8,TRUE,TRUE,841,118
7,10,"omm",103,1,TRUE,TRUE,887,158
7,10,"omm",104,5,TRUE,TRUE,634,94
7,10,"omm",105,5,TRUE,TRUE,433,118
7,10,"omm",106,1,TRUE,TRUE,1282,110
7,10,"omm",107,5,TRUE,TRUE,743,151
7,10,"omm",108,1,TRUE,TRUE,264,102
7,10,"omm",109,1,TRUE,TRUE,1378,109
7,10,"omm",110,8,TRUE,TRUE,863,126
7,10,"omm",111,5,TRUE,TRUE,411,142
7,10,"omm",112,1,TRUE,TRUE,1205,142
7,10,"omm",113,3,TRUE,TRUE,1173,421
7,10,"omm",114,3,FALSE,FALSE,1857,1
7,10,"omm",115,1,TRUE,TRUE,1111,141
7,10,"omm",116,8,TRUE,TRUE,1392,1
7,10,"omm",117,1,TRUE,TRUE,1028,1
7,10,"omm",118,5,TRUE,TRUE,783,93
7,10,"omm",119,1,TRUE,TRUE,921,1
7,10,"omm",120,8,TRUE,TRUE,1518,1
7,10,"omm",121,5,TRUE,TRUE,1216,1
7,10,"omm",122,3,TRUE,TRUE,1291,110
7,10,"omm",123,5,TRUE,TRUE,1214,0
7,10,"omm",124,1,TRUE,TRUE,716,37
7,10,"omm",125,8,TRUE,TRUE,1641,0
7,10,"omm",126,3,TRUE,TRUE,452,62
7,10,"omm",127,8,TRUE,TRUE,1555,2
7,10,"omm",128,8,TRUE,TRUE,880,149
7,10,"omm",129,8,TRUE,TRUE,1408,0
7,10,"omm",130,8,TRUE,TRUE,1087,0
7,10,"omm",131,1,FALSE,FALSE,1431,166
7,10,"omm",132,8,TRUE,TRUE,1556,0
7,10,"omm",133,3,TRUE,TRUE,999,1
7,10,"omm",134,1,FALSE,FALSE,1319,134
7,10,"omm",135,1,TRUE,TRUE,426,0
7,10,"omm",136,8,TRUE,TRUE,1170,1
7,10,"omm",137,1,TRUE,TRUE,1058,0
7,10,"omm",138,1,TRUE,TRUE,809,13
7,10,"omm",139,1,TRUE,TRUE,654,22
7,10,"omm",140,8,TRUE,TRUE,1053,245
7,10,"omm",141,5,TRUE,TRUE,583,158
7,10,"omm",142,3,TRUE,TRUE,516,269
7,10,"omm",143,3,TRUE,TRUE,389,230
7,10,"omm",144,3,TRUE,TRUE,414,222
7,11,"control",1,5,TRUE,TRUE,1022,222
7,11,"control",2,8,TRUE,TRUE,824,494
7,11,"control",3,1,TRUE,FALSE,1054,247
7,11,"control",4,1,FALSE,FALSE,2187,191
7,11,"control",5,8,TRUE,TRUE,903,183
7,11,"control",6,5,TRUE,TRUE,1163,247
7,11,"control",7,3,TRUE,FALSE,1357,238
7,11,"control",8,5,TRUE,TRUE,1095,286
7,11,"control",9,1,TRUE,TRUE,1030,262
7,11,"control",10,3,TRUE,TRUE,959,206
7,11,"control",11,8,TRUE,TRUE,869,199
7,11,"control",12,1,TRUE,TRUE,1735,166
7,11,"control",13,8,TRUE,TRUE,1077,214
7,11,"control",14,8,TRUE,TRUE,935,478
7,11,"control",15,5,TRUE,TRUE,714,214
7,11,"control",16,5,TRUE,TRUE,731,246
7,11,"control",17,8,TRUE,TRUE,823,254
7,11,"control",18,5,TRUE,TRUE,798,743
7,11,"control",19,8,TRUE,TRUE,1398,614
7,11,"control",20,1,TRUE,FALSE,2032,142
7,11,"control",21,1,TRUE,TRUE,1180,270
7,11,"control",22,1,TRUE,TRUE,1956,182
7,11,"control",23,8,TRUE,FALSE,2389,197
7,11,"control",24,5,TRUE,TRUE,1157,230
7,11,"control",25,8,TRUE,TRUE,1284,294
7,11,"control",26,8,TRUE,TRUE,1649,222
7,11,"control",27,8,FALSE,FALSE,1161,1622
7,11,"control",28,1,TRUE,TRUE,1904,222
7,11,"control",29,5,TRUE,TRUE,1389,223
7,11,"control",30,3,TRUE,TRUE,1310,207
7,11,"control",31,3,FALSE,FALSE,1385,311
7,11,"control",32,3,FALSE,FALSE,2976,262
7,11,"control",33,5,TRUE,TRUE,810,254
7,11,"control",34,8,TRUE,TRUE,1126,230
7,11,"control",35,8,TRUE,TRUE,1620,198
7,11,"control",36,3,TRUE,TRUE,1322,246
7,11,"control",37,1,TRUE,TRUE,1185,269
7,11,"control",38,5,TRUE,TRUE,825,285
7,11,"control",39,3,TRUE,TRUE,1498,207
7,11,"control",40,5,TRUE,TRUE,745,213
7,11,"control",41,1,TRUE,TRUE,920,213
7,11,"control",42,1,TRUE,TRUE,845,334
7,11,"control",43,5,TRUE,TRUE,767,278
7,11,"control",44,8,TRUE,FALSE,1277,230
7,11,"control",45,5,TRUE,TRUE,876,270
7,11,"control",46,1,TRUE,TRUE,1383,214
7,11,"control",47,1,FALSE,FALSE,1362,302
7,11,"control",48,5,TRUE,TRUE,2034,214
7,11,"control",49,1,TRUE,TRUE,1287,221
7,11,"control",50,8,TRUE,TRUE,761,263
7,11,"control",51,5,TRUE,FALSE,1261,910
7,11,"control",52,8,TRUE,TRUE,868,277
7,11,"control",53,1,TRUE,TRUE,817,206
7,11,"control",54,5,TRUE,FALSE,1163,270
7,11,"control",55,5,TRUE,TRUE,906,253
7,11,"control",56,5,TRUE,TRUE,847,309
7,11,"control",57,3,TRUE,FALSE,1366,207
7,11,"control",58,1,TRUE,TRUE,817,750
7,11,"control",59,5,TRUE,TRUE,1158,261
7,11,"control",60,3,TRUE,TRUE,954,254
7,11,"control",61,5,TRUE,TRUE,670,205
7,11,"control",62,3,TRUE,TRUE,1553,253
7,11,"control",63,1,TRUE,TRUE,1082,198
7,11,"control",64,5,TRUE,TRUE,1155,221
7,11,"control",65,5,TRUE,TRUE,806,238
7,11,"control",66,8,TRUE,TRUE,1321,309
7,11,"control",67,1,TRUE,FALSE,3019,302
7,11,"control",68,5,TRUE,TRUE,1314,261
7,11,"control",69,5,TRUE,TRUE,1474,302
7,11,"control",70,1,TRUE,FALSE,2678,253
7,11,"control",71,3,TRUE,TRUE,1547,229
7,11,"control",72,3,TRUE,FALSE,1527,166
7,11,"control",73,8,TRUE,TRUE,1207,350
7,11,"control",74,3,TRUE,TRUE,529,245
7,11,"control",75,3,TRUE,FALSE,1591,174
7,11,"control",76,1,FALSE,FALSE,991,221
7,11,"control",77,3,TRUE,TRUE,873,190
7,11,"control",78,8,TRUE,TRUE,1688,189
7,11,"control",79,1,FALSE,FALSE,2677,558
7,11,"control",80,3,TRUE,TRUE,957,237
7,11,"control",81,5,TRUE,TRUE,759,213
7,11,"control",82,3,TRUE,FALSE,1213,270
7,11,"control",83,5,FALSE,FALSE,1791,446
7,11,"control",84,3,TRUE,TRUE,1323,318
7,11,"control",85,8,TRUE,TRUE,1126,182
7,11,"control",86,1,TRUE,TRUE,1348,205
7,11,"control",87,3,FALSE,FALSE,1629,190
7,11,"control",88,8,TRUE,TRUE,1113,174
7,11,"control",89,3,TRUE,FALSE,1218,173
7,11,"control",90,5,TRUE,TRUE,867,174
7,11,"control",91,1,TRUE,TRUE,1000,141
7,11,"control",92,8,TRUE,TRUE,1154,189
7,11,"control",93,3,TRUE,TRUE,1227,125
7,11,"control",94,8,TRUE,TRUE,1001,141
7,11,"control",95,3,FALSE,FALSE,1507,358
7,11,"control",96,5,TRUE,FALSE,1760,213
7,11,"control",97,8,TRUE,TRUE,1386,109
7,11,"control",98,3,TRUE,FALSE,1277,101
7,11,"control",99,3,TRUE,FALSE,2472,254
7,11,"control",100,8,TRUE,TRUE,1747,156
7,11,"control",101,8,TRUE,TRUE,1577,126
7,11,"control",102,5,TRUE,TRUE,1045,117
7,11,"control",103,1,TRUE,TRUE,1400,206
7,11,"control",104,1,TRUE,TRUE,1069,149
7,11,"control",105,1,TRUE,TRUE,1024,142
7,11,"control",106,8,TRUE,TRUE,1464,158
7,11,"control",107,8,TRUE,TRUE,1045,134
7,11,"control",108,1,TRUE,TRUE,1368,228
7,11,"control",109,5,TRUE,TRUE,977,150
7,11,"control",110,5,TRUE,TRUE,604,238
7,11,"control",111,1,TRUE,TRUE,1462,143
7,11,"control",112,1,TRUE,TRUE,1615,333
7,11,"control",113,3,TRUE,TRUE,961,253
7,11,"control",114,3,TRUE,TRUE,1198,205
7,11,"control",115,3,TRUE,TRUE,1369,173
7,11,"control",116,8,TRUE,TRUE,2348,133
7,11,"control",117,5,FALSE,FALSE,2372,214
7,11,"control",118,8,TRUE,TRUE,1327,149
7,11,"control",119,5,TRUE,TRUE,1215,150
7,11,"control",120,3,TRUE,FALSE,1218,148
7,11,"control",121,3,TRUE,TRUE,1137,125
7,11,"control",122,3,TRUE,TRUE,1165,134
7,11,"control",123,5,TRUE,TRUE,1076,140
7,11,"control",124,3,TRUE,TRUE,890,86
7,11,"control",125,8,TRUE,TRUE,1069,158
7,11,"control",126,3,TRUE,TRUE,1219,126
7,11,"control",127,1,TRUE,TRUE,1195,117
7,11,"control",128,1,TRUE,TRUE,1263,134
7,11,"control",129,8,TRUE,TRUE,1334,189
7,11,"control",130,5,FALSE,FALSE,1737,133
7,11,"control",131,8,TRUE,TRUE,1336,125
7,11,"control",132,8,TRUE,FALSE,1296,93
7,11,"control",133,1,TRUE,TRUE,1073,132
7,11,"control",134,3,TRUE,TRUE,1516,141
7,11,"control",135,3,TRUE,FALSE,1306,94
7,11,"control",136,8,TRUE,FALSE,1654,110
7,11,"control",137,3,TRUE,FALSE,1608,133
7,11,"control",138,1,TRUE,TRUE,1167,77
7,11,"control",139,1,TRUE,TRUE,1409,309
7,11,"control",140,5,TRUE,FALSE,1851,116
7,11,"control",141,3,TRUE,TRUE,1622,117
7,11,"control",142,8,TRUE,TRUE,1108,100
7,11,"control",143,1,TRUE,TRUE,914,117
7,11,"control",144,1,FALSE,FALSE,2358,188
7,13,"control",1,1,TRUE,TRUE,1359,246
7,13,"control",2,5,TRUE,TRUE,1049,295
7,13,"control",3,1,TRUE,TRUE,1086,510
7,13,"control",4,3,TRUE,FALSE,1140,303
7,13,"control",5,5,TRUE,TRUE,926,63
7,13,"control",6,8,TRUE,TRUE,983,478
7,13,"control",7,3,TRUE,TRUE,1094,215
7,13,"control",8,1,TRUE,TRUE,1078,207
7,13,"control",9,5,TRUE,TRUE,910,350
7,13,"control",10,5,TRUE,TRUE,1072,406
7,13,"control",11,3,TRUE,TRUE,1222,471
7,13,"control",12,5,TRUE,TRUE,744,526
7,13,"control",13,1,TRUE,TRUE,1163,95
7,13,"control",14,5,TRUE,TRUE,1011,87
7,13,"control",15,1,TRUE,TRUE,1076,390
7,13,"control",16,1,TRUE,TRUE,968,662
7,13,"control",17,1,TRUE,TRUE,997,502
7,13,"control",18,1,FALSE,FALSE,1237,277
7,13,"control",19,8,TRUE,TRUE,2808,735
7,13,"control",20,3,TRUE,FALSE,1475,246
7,13,"control",21,5,TRUE,TRUE,967,551
7,13,"control",22,5,TRUE,TRUE,803,455
7,13,"control",23,8,TRUE,TRUE,1065,382
7,13,"control",24,1,TRUE,TRUE,1218,470
7,13,"control",25,5,TRUE,TRUE,1098,382
7,13,"control",26,5,TRUE,TRUE,1526,470
7,13,"control",27,3,FALSE,FALSE,1160,166
7,13,"control",28,5,TRUE,TRUE,1035,319
7,13,"control",29,3,TRUE,TRUE,1860,87
7,13,"control",30,8,TRUE,FALSE,2724,383
7,13,"control",31,1,TRUE,FALSE,1695,39
7,13,"control",32,3,TRUE,TRUE,1062,110
7,13,"control",33,1,TRUE,TRUE,966,414
7,13,"control",34,8,TRUE,TRUE,992,135
7,13,"control",35,8,FALSE,FALSE,1547,174
7,13,"control",36,5,TRUE,TRUE,953,142
7,13,"control",37,1,TRUE,TRUE,1094,527
7,13,"control",38,5,TRUE,TRUE,1042,407
7,13,"control",39,8,TRUE,TRUE,984,406
7,13,"control",40,8,TRUE,TRUE,1273,399
7,13,"control",41,8,TRUE,TRUE,1193,367
7,13,"control",42,3,TRUE,FALSE,1426,3294
7,13,"control",43,8,TRUE,TRUE,1196,126
7,13,"control",44,3,TRUE,FALSE,2052,30
7,13,"control",45,1,TRUE,TRUE,835,390
7,13,"control",46,1,TRUE,TRUE,861,438
7,13,"control",47,8,TRUE,TRUE,1001,390
7,13,"control",48,8,TRUE,TRUE,905,438
7,13,"control",49,5,TRUE,FALSE,1591,254
7,13,"control",50,1,TRUE,TRUE,1051,445
7,13,"control",51,8,FALSE,FALSE,1388,159
7,13,"control",52,3,TRUE,TRUE,1587,383
7,13,"control",53,5,TRUE,TRUE,1011,486
7,13,"control",54,8,FALSE,FALSE,2768,1038
7,13,"control",55,5,TRUE,TRUE,987,590
7,13,"control",56,3,FALSE,FALSE,2044,111
7,13,"control",57,8,TRUE,TRUE,1406,311
7,13,"control",58,1,TRUE,TRUE,1233,270
7,13,"control",59,3,TRUE,TRUE,831,303
7,13,"control",60,8,TRUE,TRUE,1379,262
7,13,"control",61,3,TRUE,TRUE,996,94
7,13,"control",62,8,TRUE,TRUE,1040,437
7,13,"control",63,8,FALSE,FALSE,1310,110
7,13,"control",64,5,TRUE,FALSE,1571,694
7,13,"control",65,5,TRUE,FALSE,1691,295
7,13,"control",66,3,TRUE,FALSE,1117,102
7,13,"control",67,3,TRUE,FALSE,1767,190
7,13,"control",68,3,TRUE,TRUE,1299,517
7,13,"control",69,5,TRUE,TRUE,876,294
7,13,"control",70,1,TRUE,TRUE,1838,700
7,13,"control",71,5,TRUE,TRUE,1026,94
7,13,"control",72,1,TRUE,TRUE,1045,309
7,13,"control",73,8,TRUE,TRUE,1484,295
7,13,"control",74,8,TRUE,FALSE,1307,342
7,13,"control",75,1,TRUE,TRUE,1308,582
7,13,"control",76,5,TRUE,TRUE,1527,222
7,13,"control",77,8,TRUE,TRUE,2696,446
7,13,"control",78,1,TRUE,TRUE,970,517
7,13,"control",79,8,TRUE,TRUE,1953,702
7,13,"control",80,3,TRUE,TRUE,1256,350
7,13,"control",81,5,TRUE,FALSE,2071,2254
7,13,"control",82,8,TRUE,TRUE,1170,574
7,13,"control",83,3,TRUE,TRUE,913,421
7,13,"control",84,3,TRUE,TRUE,860,326
7,13,"control",85,3,TRUE,FALSE,1300,310
7,13,"control",86,3,TRUE,FALSE,1139,381
7,13,"control",87,5,TRUE,TRUE,1081,478
7,13,"control",88,1,FALSE,FALSE,1366,534
7,13,"control",89,8,TRUE,TRUE,1043,421
7,13,"control",90,3,TRUE,TRUE,1130,302
7,13,"control",91,3,FALSE,FALSE,2014,471
7,13,"control",92,5,TRUE,TRUE,920,447
7,13,"control",93,3,TRUE,TRUE,1046,374
7,13,"control",94,1,TRUE,TRUE,992,548
7,13,"control",95,5,TRUE,TRUE,1248,398
7,13,"control",96,3,TRUE,TRUE,1165,878
7,13,"control",97,5,TRUE,FALSE,1485,316
7,13,"control",98,5,TRUE,TRUE,1614,326
7,13,"control",99,3,TRUE,TRUE,856,653
7,13,"control",100,3,TRUE,TRUE,1594,236
7,13,"control",101,1,TRUE,TRUE,1347,542
7,13,"control",102,8,TRUE,TRUE,1241,661
7,13,"control",103,1,TRUE,TRUE,1213,550
7,13,"control",104,8,TRUE,TRUE,1209,237
7,13,"control",105,8,TRUE,TRUE,1119,710
7,13,"control",106,1,TRUE,TRUE,1078,773
7,13,"control",107,5,TRUE,TRUE,1325,213
7,13,"control",108,5,TRUE,TRUE,2055,742
7,13,"control",109,5,TRUE,TRUE,1118,582
7,13,"control",110,8,TRUE,TRUE,1092,317
7,13,"control",111,1,TRUE,TRUE,1634,557
7,13,"control",112,3,TRUE,TRUE,1061,717
7,13,"control",113,3,TRUE,FALSE,1118,221
7,13,"control",114,5,TRUE,TRUE,1166,294
7,13,"control",115,1,TRUE,TRUE,1062,204
7,13,"control",116,8,TRUE,TRUE,1175,413
7,13,"control",117,1,TRUE,TRUE,1269,518
7,13,"control",118,3,TRUE,TRUE,1293,372
7,13,"control",119,3,TRUE,TRUE,1539,429
7,13,"control",120,1,TRUE,TRUE,1107,621
7,13,"control",121,5,TRUE,TRUE,1174,334
7,13,"control",122,1,TRUE,TRUE,1983,365
7,13,"control",123,5,TRUE,TRUE,1147,190
7,13,"control",124,3,TRUE,TRUE,1383,526
7,13,"control",125,8,TRUE,TRUE,1031,142
7,13,"control",126,1,TRUE,TRUE,1016,341
7,13,"control",127,8,TRUE,TRUE,1116,349
7,13,"control",128,5,TRUE,TRUE,644,325
7,13,"control",129,8,TRUE,TRUE,2816,325
7,13,"control",130,5,TRUE,TRUE,913,293
7,13,"control",131,1,TRUE,TRUE,874,86
7,13,"control",132,5,TRUE,TRUE,907,94
7,13,"control",133,1,TRUE,TRUE,1083,213
7,13,"control",134,8,TRUE,TRUE,1075,501
7,13,"control",135,1,TRUE,TRUE,1375,221
7,13,"control",136,3,TRUE,TRUE,547,260
7,13,"control",137,1,TRUE,TRUE,985,180
7,13,"control",138,3,TRUE,TRUE,965,316
7,13,"control",139,3,TRUE,TRUE,873,390
7,13,"control",140,8,TRUE,TRUE,1090,117
7,13,"control",141,8,TRUE,TRUE,1205,94
7,13,"control",142,3,TRUE,TRUE,1217,477
7,13,"control",143,1,TRUE,TRUE,1453,365
7,13,"control",144,8,TRUE,TRUE,2749,516
7,14,"control",1,5,TRUE,TRUE,575,231
7,14,"control",2,1,TRUE,TRUE,679,390
7,14,"control",3,3,TRUE,FALSE,962,335
7,14,"control",4,5,TRUE,TRUE,739,391
7,14,"control",5,1,TRUE,TRUE,1369,278
7,14,"control",6,3,TRUE,TRUE,773,206
7,14,"control",7,5,TRUE,TRUE,557,271
7,14,"control",8,3,TRUE,TRUE,476,439
7,14,"control",9,1,TRUE,TRUE,26,279
7,14,"control",10,5,TRUE,FALSE,619,414
7,14,"control",11,5,TRUE,TRUE,456,398
7,14,"control",12,5,TRUE,TRUE,432,255
7,14,"control",13,5,TRUE,TRUE,723,231
7,14,"control",14,8,TRUE,TRUE,611,399
7,14,"control",15,3,TRUE,FALSE,1291,167
7,14,"control",16,3,TRUE,TRUE,1526,4023
7,14,"control",17,5,TRUE,TRUE,382,199
7,14,"control",18,3,TRUE,TRUE,536,303
7,14,"control",19,3,TRUE,TRUE,161,239
7,14,"control",20,1,TRUE,TRUE,799,430
7,14,"control",21,8,TRUE,TRUE,581,430
7,14,"control",22,3,TRUE,FALSE,1086,718
7,14,"control",23,8,TRUE,TRUE,896,487
7,14,"control",24,5,TRUE,TRUE,582,566
7,14,"control",25,1,TRUE,TRUE,519,431
7,14,"control",26,3,TRUE,FALSE,1342,717
7,14,"control",27,8,TRUE,TRUE,494,350
7,14,"control",28,3,TRUE,TRUE,212,679
7,14,"control",29,3,TRUE,TRUE,987,278
7,14,"control",30,5,TRUE,TRUE,882,246
7,14,"control",31,8,TRUE,TRUE,869,230
7,14,"control",32,3,TRUE,TRUE,197,382
7,14,"control",33,8,TRUE,TRUE,903,287
7,14,"control",34,5,TRUE,FALSE,1207,462
7,14,"control",35,5,TRUE,TRUE,643,262
7,14,"control",36,1,TRUE,TRUE,233,335
7,14,"control",37,8,TRUE,TRUE,799,230
7,14,"control",38,8,TRUE,TRUE,800,270
7,14,"control",39,1,TRUE,TRUE,820,703
7,14,"control",40,5,TRUE,TRUE,412,279
7,14,"control",41,3,TRUE,TRUE,222,479
7,14,"control",42,8,TRUE,TRUE,782,511
7,14,"control",43,8,TRUE,TRUE,614,222
7,14,"control",44,3,TRUE,FALSE,1619,486
7,14,"control",45,1,TRUE,TRUE,241,262
7,14,"control",46,1,TRUE,TRUE,1479,286
7,14,"control",47,5,TRUE,FALSE,1999,950
7,14,"control",48,5,TRUE,TRUE,320,318
7,14,"control",49,5,TRUE,TRUE,363,205
7,14,"control",50,5,TRUE,TRUE,293,351
7,14,"control",51,3,TRUE,TRUE,468,479
7,14,"control",52,3,TRUE,TRUE,398,222
7,14,"control",53,3,TRUE,FALSE,1344,646
7,14,"control",54,5,TRUE,TRUE,400,198
7,14,"control",55,8,TRUE,TRUE,916,247
7,14,"control",56,8,TRUE,TRUE,449,230
7,14,"control",57,1,TRUE,TRUE,630,503
7,14,"control",58,8,TRUE,TRUE,563,206
7,14,"control",59,8,TRUE,TRUE,1155,606
7,14,"control",60,1,TRUE,TRUE,924,534
7,14,"control",61,8,TRUE,TRUE,826,614
7,14,"control",62,8,TRUE,TRUE,645,277
7,14,"control",63,8,TRUE,TRUE,343,391
7,14,"control",64,3,TRUE,TRUE,257,222
7,14,"control",65,1,FALSE,FALSE,1045,2830
7,14,"control",66,3,TRUE,TRUE,425,229
7,14,"control",67,8,TRUE,TRUE,834,214
7,14,"control",68,3,TRUE,TRUE,265,310
7,14,"control",69,5,TRUE,TRUE,574,254
7,14,"control",70,1,TRUE,TRUE,998,253
7,14,"control",71,5,TRUE,TRUE,740,399
7,14,"control",72,8,TRUE,TRUE,607,279
7,14,"control",73,3,TRUE,FALSE,2103,390
7,14,"control",74,1,TRUE,TRUE,333,269
7,14,"control",75,3,TRUE,FALSE,1882,645
7,14,"control",76,1,TRUE,TRUE,311,1287
7,14,"control",77,3,TRUE,TRUE,484,214
7,14,"control",78,1,TRUE,TRUE,848,302
7,14,"control",79,3,TRUE,TRUE,801,231
7,14,"control",80,1,FALSE,FALSE,984,NA
7,14,"control",81,5,TRUE,TRUE,730,285
7,14,"control",82,8,TRUE,TRUE,1585,502
7,14,"control",83,3,TRUE,TRUE,427,246
7,14,"control",84,5,TRUE,TRUE,2018,527
7,14,"control",85,3,TRUE,TRUE,914,310
7,14,"control",86,1,FALSE,FALSE,1738,662
7,14,"control",87,8,TRUE,TRUE,1129,294
7,14,"control",88,8,TRUE,TRUE,1159,414
7,14,"control",89,3,TRUE,TRUE,477,221
7,14,"control",90,5,TRUE,TRUE,318,253
7,14,"control",91,5,FALSE,FALSE,928,245
7,14,"control",92,8,TRUE,TRUE,666,238
7,14,"control",93,1,TRUE,TRUE,916,278
7,14,"control",94,3,TRUE,TRUE,666,229
7,14,"control",95,8,TRUE,TRUE,801,262
7,14,"control",96,1,TRUE,TRUE,518,269
7,14,"control",97,1,TRUE,TRUE,324,381
7,14,"control",98,1,TRUE,TRUE,442,270
7,14,"control",99,1,TRUE,TRUE,496,366
7,14,"control",100,5,TRUE,TRUE,964,286
7,14,"control",101,3,TRUE,TRUE,948,254
7,14,"control",102,3,TRUE,TRUE,764,238
7,14,"control",103,5,TRUE,TRUE,774,269
7,14,"control",104,8,TRUE,TRUE,715,590
7,14,"control",105,5,TRUE,TRUE,795,198
7,14,"control",106,1,TRUE,TRUE,112,228
7,14,"control",107,1,TRUE,TRUE,764,189
7,14,"control",108,1,TRUE,TRUE,322,245
7,14,"control",109,1,TRUE,TRUE,403,399
7,14,"control",110,1,TRUE,TRUE,831,373
7,14,"control",111,1,TRUE,TRUE,134,237
7,14,"control",112,3,TRUE,FALSE,1143,334
7,14,"control",113,3,TRUE,TRUE,2047,309
7,14,"control",114,8,TRUE,TRUE,965,509
7,14,"control",115,5,TRUE,TRUE,542,309
7,14,"control",116,5,TRUE,TRUE,208,285
7,14,"control",117,8,TRUE,TRUE,719,413
7,14,"control",118,8,TRUE,TRUE,966,526
7,14,"control",119,1,TRUE,TRUE,255,302
7,14,"control",120,8,TRUE,TRUE,1038,309
7,14,"control",121,3,TRUE,TRUE,1162,509
7,14,"control",122,3,TRUE,TRUE,735,534
7,14,"control",123,8,TRUE,TRUE,685,277
7,14,"control",124,8,TRUE,TRUE,620,414
7,14,"control",125,5,TRUE,TRUE,610,493
7,14,"control",126,1,TRUE,TRUE,67,390
7,14,"control",127,1,TRUE,TRUE,211,1814
7,14,"control",128,8,TRUE,TRUE,601,333
7,14,"control",129,8,TRUE,TRUE,758,325
7,14,"control",130,8,TRUE,TRUE,1056,565
7,14,"control",131,3,TRUE,TRUE,839,340
7,14,"control",132,5,TRUE,TRUE,670,429
7,14,"control",133,5,TRUE,TRUE,434,589
7,14,"control",134,5,TRUE,TRUE,659,622
7,14,"control",135,1,TRUE,TRUE,789,293
7,14,"control",136,1,TRUE,TRUE,1103,517
7,14,"control",137,3,TRUE,TRUE,846,453
7,14,"control",138,5,TRUE,TRUE,895,421
7,14,"control",139,1,TRUE,TRUE,454,557
7,14,"control",140,1,TRUE,TRUE,579,325
7,14,"control",141,8,TRUE,TRUE,707,269
7,14,"control",142,5,TRUE,TRUE,1065,477
7,14,"control",143,8,TRUE,TRUE,813,277
7,14,"control",144,5,TRUE,TRUE,547,357
7,15,"omm",1,5,TRUE,TRUE,1019,391
7,15,"omm",2,3,TRUE,TRUE,1476,350
7,15,"omm",3,3,TRUE,FALSE,1333,526
7,15,"omm",4,5,TRUE,FALSE,1176,655
7,15,"omm",5,3,TRUE,TRUE,797,174
7,15,"omm",6,3,TRUE,TRUE,893,167
7,15,"omm",7,8,TRUE,TRUE,903,286
7,15,"omm",8,5,TRUE,FALSE,907,215
7,15,"omm",9,5,TRUE,TRUE,858,222
7,15,"omm",10,5,TRUE,TRUE,772,374
7,15,"omm",11,3,TRUE,FALSE,1031,351
7,15,"omm",12,1,TRUE,TRUE,851,246
7,15,"omm",13,8,TRUE,TRUE,1052,222
7,15,"omm",14,5,TRUE,TRUE,894,351
7,15,"omm",15,3,TRUE,FALSE,1106,207
7,15,"omm",16,8,TRUE,FALSE,1048,222
7,15,"omm",17,8,TRUE,TRUE,1256,255
7,15,"omm",18,5,TRUE,TRUE,734,326
7,15,"omm",19,3,TRUE,FALSE,1296,182
7,15,"omm",20,8,TRUE,TRUE,713,270
7,15,"omm",21,5,TRUE,FALSE,849,310
7,15,"omm",22,1,TRUE,TRUE,969,133
7,15,"omm",23,8,TRUE,TRUE,836,278
7,15,"omm",24,5,TRUE,TRUE,1011,310
7,15,"omm",25,3,TRUE,TRUE,664,230
7,15,"omm",26,5,FALSE,FALSE,1044,223
7,15,"omm",27,1,TRUE,TRUE,893,406
7,15,"omm",28,5,TRUE,TRUE,823,182
7,15,"omm",29,8,TRUE,TRUE,820,261
7,15,"omm",30,8,FALSE,FALSE,1185,374
7,15,"omm",31,1,TRUE,TRUE,766,359
7,15,"omm",32,5,TRUE,FALSE,1037,357
7,15,"omm",33,1,TRUE,TRUE,748,207
7,15,"omm",34,5,TRUE,FALSE,852,198
7,15,"omm",35,5,TRUE,TRUE,1054,326
7,15,"omm",36,1,FALSE,FALSE,925,189
7,15,"omm",37,3,TRUE,TRUE,412,198
7,15,"omm",38,8,TRUE,TRUE,750,150
7,15,"omm",39,8,TRUE,TRUE,815,118
7,15,"omm",40,5,TRUE,TRUE,772,222
7,15,"omm",41,5,TRUE,TRUE,1073,270
7,15,"omm",42,3,TRUE,TRUE,836,326
7,15,"omm",43,8,TRUE,TRUE,800,254
7,15,"omm",44,5,TRUE,TRUE,686,181
7,15,"omm",45,1,TRUE,TRUE,952,238
7,15,"omm",46,3,TRUE,TRUE,743,302
7,15,"omm",47,5,TRUE,TRUE,616,422
7,15,"omm",48,8,TRUE,TRUE,827,350
7,15,"omm",49,1,TRUE,TRUE,848,279
7,15,"omm",50,8,TRUE,TRUE,867,286
7,15,"omm",51,1,TRUE,TRUE,1145,239
7,15,"omm",52,1,TRUE,TRUE,930,277
7,15,"omm",53,3,FALSE,FALSE,676,253
7,15,"omm",54,1,TRUE,TRUE,775,278
7,15,"omm",55,1,FALSE,FALSE,591,255
7,15,"omm",56,5,TRUE,TRUE,693,238
7,15,"omm",57,3,TRUE,TRUE,703,373
7,15,"omm",58,8,TRUE,FALSE,1070,421
7,15,"omm",59,8,TRUE,TRUE,866,230
7,15,"omm",60,5,TRUE,TRUE,666,365
7,15,"omm",61,1,TRUE,TRUE,883,279
7,15,"omm",62,1,TRUE,TRUE,805,469
7,15,"omm",63,1,TRUE,TRUE,1090,230
7,15,"omm",64,8,TRUE,TRUE,962,325
7,15,"omm",65,5,FALSE,FALSE,819,326
7,15,"omm",66,5,TRUE,TRUE,769,270
7,15,"omm",67,3,TRUE,TRUE,861,302
7,15,"omm",68,8,FALSE,FALSE,803,286
7,15,"omm",69,1,FALSE,FALSE,967,230
7,15,"omm",70,8,TRUE,TRUE,762,206
7,15,"omm",71,5,TRUE,TRUE,822,430
7,15,"omm",72,1,TRUE,TRUE,313,294
7,15,"omm",73,1,TRUE,TRUE,761,333
7,15,"omm",74,8,TRUE,TRUE,825,262
7,15,"omm",75,8,TRUE,TRUE,812,270
7,15,"omm",76,8,FALSE,FALSE,1495,270
7,15,"omm",77,5,TRUE,FALSE,1006,261
7,15,"omm",78,1,FALSE,FALSE,340,262
7,15,"omm",79,8,TRUE,TRUE,892,366
7,15,"omm",80,8,TRUE,TRUE,736,156
7,15,"omm",81,5,TRUE,TRUE,1566,95
7,15,"omm",82,5,TRUE,TRUE,1049,133
7,15,"omm",83,8,TRUE,TRUE,678,2461
7,15,"omm",84,1,TRUE,TRUE,788,278
7,15,"omm",85,1,TRUE,TRUE,692,254
7,15,"omm",86,8,TRUE,TRUE,662,230
7,15,"omm",87,3,TRUE,FALSE,1018,709
7,15,"omm",88,5,TRUE,TRUE,802,269
7,15,"omm",89,3,FALSE,FALSE,1395,318
7,15,"omm",90,1,TRUE,TRUE,1380,221
7,15,"omm",91,3,TRUE,TRUE,1153,141
7,15,"omm",92,1,TRUE,TRUE,750,149
7,15,"omm",93,5,TRUE,TRUE,1073,181
7,15,"omm",94,8,TRUE,TRUE,781,188
7,15,"omm",95,3,TRUE,TRUE,1058,205
7,15,"omm",96,1,TRUE,TRUE,403,246
7,15,"omm",97,3,TRUE,FALSE,981,333
7,15,"omm",98,5,TRUE,TRUE,869,230
7,15,"omm",99,8,TRUE,FALSE,1572,213
7,15,"omm",100,1,TRUE,TRUE,1712,213
7,15,"omm",101,5,TRUE,TRUE,848,389
7,15,"omm",102,3,TRUE,TRUE,1166,167
7,15,"omm",103,3,TRUE,TRUE,1087,229
7,15,"omm",104,3,TRUE,TRUE,939,286
7,15,"omm",105,5,TRUE,TRUE,1050,101
7,15,"omm",106,8,TRUE,TRUE,1126,581
7,15,"omm",107,3,TRUE,TRUE,847,180
7,15,"omm",108,1,TRUE,TRUE,365,180
7,15,"omm",109,8,TRUE,TRUE,945,437
7,15,"omm",110,3,TRUE,FALSE,723,276
7,15,"omm",111,5,TRUE,TRUE,676,461
7,15,"omm",112,3,TRUE,FALSE,800,325
7,15,"omm",113,3,TRUE,FALSE,782,158
7,15,"omm",114,8,TRUE,FALSE,866,124
7,15,"omm",115,8,FALSE,FALSE,978,414
7,15,"omm",116,8,TRUE,TRUE,1145,437
7,15,"omm",117,1,TRUE,TRUE,446,365
7,15,"omm",118,3,TRUE,TRUE,971,349
7,15,"omm",119,5,TRUE,TRUE,880,165
7,15,"omm",120,1,TRUE,TRUE,873,109
7,15,"omm",121,8,TRUE,TRUE,893,221
7,15,"omm",122,3,TRUE,FALSE,850,453
7,15,"omm",123,1,FALSE,FALSE,779,181
7,15,"omm",124,8,TRUE,TRUE,1177,165
7,15,"omm",125,1,TRUE,TRUE,672,301
7,15,"omm",126,8,TRUE,TRUE,771,214
7,15,"omm",127,3,TRUE,FALSE,792,390
7,15,"omm",128,3,TRUE,TRUE,908,356
7,15,"omm",129,3,TRUE,TRUE,747,326
7,15,"omm",130,3,TRUE,FALSE,853,277
7,15,"omm",131,3,TRUE,TRUE,1179,117
7,15,"omm",132,3,TRUE,TRUE,692,501
7,15,"omm",133,1,TRUE,TRUE,270,270
7,15,"omm",134,1,FALSE,FALSE,1369,309
7,15,"omm",135,5,TRUE,TRUE,690,149
7,15,"omm",136,8,FALSE,FALSE,898,269
7,15,"omm",137,1,TRUE,TRUE,602,164
7,15,"omm",138,3,TRUE,TRUE,587,133
7,15,"omm",139,1,TRUE,TRUE,916,285
7,15,"omm",140,1,TRUE,TRUE,903,357
7,15,"omm",141,1,TRUE,TRUE,1185,149
7,15,"omm",142,5,TRUE,TRUE,820,173
7,15,"omm",143,5,FALSE,FALSE,1178,157
7,15,"omm",144,3,TRUE,TRUE,1028,205
7,64,"control",1,8,TRUE,TRUE,1113,374
7,64,"control",2,3,TRUE,TRUE,3150,359
7,64,"control",3,3,TRUE,FALSE,1684,1463
7,64,"control",4,5,TRUE,TRUE,1205,534
7,64,"control",5,1,TRUE,TRUE,1231,231
7,64,"control",6,3,TRUE,TRUE,1843,263
7,64,"control",7,8,TRUE,FALSE,2277,959
7,64,"control",8,3,TRUE,FALSE,2769,2429
7,64,"control",9,8,FALSE,FALSE,2069,2054
7,64,"control",10,8,TRUE,TRUE,1344,302
7,64,"control",11,3,TRUE,FALSE,1675,2527
7,64,"control",12,5,TRUE,TRUE,1153,479
7,64,"control",13,8,TRUE,TRUE,1236,367
7,64,"control",14,5,TRUE,TRUE,1182,350
7,64,"control",15,3,TRUE,FALSE,1681,1023
7,64,"control",16,8,TRUE,TRUE,1064,550
7,64,"control",17,1,TRUE,FALSE,1421,1062
7,64,"control",18,3,TRUE,FALSE,1181,326
7,64,"control",19,1,TRUE,TRUE,1011,287
7,64,"control",20,1,TRUE,TRUE,1272,190
7,64,"control",21,5,TRUE,TRUE,2877,415
7,64,"control",22,8,TRUE,TRUE,927,207
7,64,"control",23,1,TRUE,TRUE,1226,430
7,64,"control",24,1,TRUE,TRUE,1210,199
7,64,"control",25,3,TRUE,FALSE,1647,206
7,64,"control",26,8,TRUE,FALSE,1253,398
7,64,"control",27,8,TRUE,FALSE,2763,397
7,64,"control",28,1,TRUE,TRUE,1155,422
7,64,"control",29,3,TRUE,FALSE,1397,207
7,64,"control",30,5,TRUE,TRUE,1141,598
7,64,"control",31,8,TRUE,TRUE,1097,446
7,64,"control",32,8,TRUE,FALSE,1902,358
7,64,"control",33,3,TRUE,FALSE,2121,1326
7,64,"control",34,1,TRUE,TRUE,1017,317
7,64,"control",35,3,TRUE,FALSE,4103,198
7,64,"control",36,3,TRUE,FALSE,1706,2397
7,64,"control",37,3,TRUE,TRUE,1098,454
7,64,"control",38,3,TRUE,FALSE,1087,2398
7,64,"control",39,3,TRUE,FALSE,1225,453
7,64,"control",40,5,TRUE,TRUE,958,502
7,64,"control",41,5,TRUE,TRUE,910,342
7,64,"control",42,8,TRUE,TRUE,840,480
7,64,"control",43,5,TRUE,TRUE,738,462
7,64,"control",44,8,TRUE,TRUE,917,479
7,64,"control",45,1,TRUE,TRUE,1757,502
7,64,"control",46,8,TRUE,TRUE,1304,431
7,64,"control",47,5,TRUE,TRUE,1053,510
7,64,"control",48,3,TRUE,FALSE,1405,247
7,64,"control",49,1,TRUE,TRUE,1118,543
7,64,"control",50,3,TRUE,FALSE,1505,254
7,64,"control",51,1,TRUE,TRUE,1050,646
7,64,"control",52,8,TRUE,TRUE,1194,222
7,64,"control",53,8,TRUE,TRUE,1081,558
7,64,"control",54,5,TRUE,TRUE,1148,606
7,64,"control",55,8,TRUE,TRUE,1014,567
7,64,"control",56,5,TRUE,TRUE,889,390
7,64,"control",57,8,TRUE,TRUE,1194,334
7,64,"control",58,5,TRUE,FALSE,1160,270
7,64,"control",59,1,TRUE,TRUE,1152,270
7,64,"control",60,1,TRUE,TRUE,1366,494
7,64,"control",61,5,TRUE,TRUE,1027,606
7,64,"control",62,3,TRUE,FALSE,1073,198
7,64,"control",63,5,TRUE,TRUE,1326,358
7,64,"control",64,5,TRUE,TRUE,1102,294
7,64,"control",65,8,TRUE,FALSE,1262,765
7,64,"control",66,8,TRUE,TRUE,1191,614
7,64,"control",67,8,TRUE,TRUE,963,222
7,64,"control",68,5,TRUE,FALSE,1309,1503
7,64,"control",69,5,TRUE,TRUE,895,390
7,64,"control",70,8,TRUE,TRUE,1049,502
7,64,"control",71,5,TRUE,TRUE,2090,390
7,64,"control",72,5,TRUE,TRUE,1039,285
7,64,"control",73,8,TRUE,TRUE,1076,293
7,64,"control",74,5,TRUE,FALSE,960,230
7,64,"control",75,1,TRUE,TRUE,1374,389
7,64,"control",76,8,TRUE,FALSE,1732,2567
7,64,"control",77,1,TRUE,TRUE,1223,213
7,64,"control",78,1,TRUE,FALSE,1732,486
7,64,"control",79,1,FALSE,FALSE,1184,206
7,64,"control",80,1,TRUE,TRUE,829,485
7,64,"control",81,3,TRUE,FALSE,1886,223
7,64,"control",82,5,TRUE,TRUE,1534,558
7,64,"control",83,1,TRUE,TRUE,962,758
7,64,"control",84,3,TRUE,FALSE,1074,1278
7,64,"control",85,5,TRUE,TRUE,978,341
7,64,"control",86,5,TRUE,TRUE,920,382
7,64,"control",87,5,TRUE,TRUE,965,317
7,64,"control",88,5,TRUE,TRUE,880,421
7,64,"control",89,1,TRUE,TRUE,1235,374
7,64,"control",90,8,TRUE,FALSE,2225,438
7,64,"control",91,1,TRUE,TRUE,847,508
7,64,"control",92,1,TRUE,TRUE,870,309
7,64,"control",93,1,TRUE,TRUE,917,197
7,64,"control",94,3,TRUE,FALSE,2981,774
7,64,"control",95,8,TRUE,TRUE,811,278
7,64,"control",96,3,TRUE,FALSE,1612,1349
7,64,"control",97,5,TRUE,FALSE,1126,261
7,64,"control",98,3,TRUE,FALSE,1458,2574
7,64,"control",99,8,TRUE,TRUE,965,485
7,64,"control",100,5,TRUE,TRUE,894,535
7,64,"control",101,8,TRUE,TRUE,1145,238
7,64,"control",102,1,TRUE,TRUE,992,502
7,64,"control",103,3,TRUE,FALSE,908,542
7,64,"control",104,1,TRUE,TRUE,868,293
7,64,"control",105,3,TRUE,FALSE,1232,445
7,64,"control",106,5,TRUE,TRUE,772,501
7,64,"control",107,5,TRUE,TRUE,1902,1237
7,64,"control",108,8,TRUE,TRUE,953,230
7,64,"control",109,3,TRUE,TRUE,1038,269
7,64,"control",110,3,TRUE,FALSE,1985,2262
7,64,"control",111,3,TRUE,TRUE,981,190
7,64,"control",112,8,TRUE,TRUE,1640,230
7,64,"control",113,8,TRUE,TRUE,1034,461
7,64,"control",114,3,TRUE,FALSE,870,214
7,64,"control",115,5,TRUE,TRUE,864,365
7,64,"control",116,5,TRUE,TRUE,798,461
7,64,"control",117,1,TRUE,TRUE,1338,269
7,64,"control",118,3,TRUE,TRUE,1534,196
7,64,"control",119,5,FALSE,FALSE,2806,773
7,64,"control",120,3,TRUE,FALSE,1277,526
7,64,"control",121,1,TRUE,TRUE,1090,493
7,64,"control",122,1,TRUE,TRUE,1092,261
7,64,"control",123,5,TRUE,FALSE,1253,373
7,64,"control",124,8,TRUE,TRUE,1056,541
7,64,"control",125,1,TRUE,TRUE,2097,1517
7,64,"control",126,8,TRUE,TRUE,793,870
7,64,"control",127,1,TRUE,TRUE,933,557
7,64,"control",128,1,TRUE,TRUE,982,221
7,64,"control",129,3,TRUE,FALSE,1089,229
7,64,"control",130,5,TRUE,TRUE,1097,493
7,64,"control",131,5,TRUE,TRUE,931,294
7,64,"control",132,1,TRUE,TRUE,642,285
7,64,"control",133,5,TRUE,TRUE,838,541
7,64,"control",134,3,TRUE,FALSE,1069,398
7,64,"control",135,3,TRUE,FALSE,1095,236
7,64,"control",136,8,TRUE,FALSE,1597,469
7,64,"control",137,1,TRUE,TRUE,929,269
7,64,"control",138,8,TRUE,TRUE,953,301
7,64,"control",139,3,TRUE,TRUE,803,293
7,64,"control",140,1,TRUE,TRUE,649,285
7,64,"control",141,3,TRUE,TRUE,1046,373
7,64,"control",142,8,TRUE,TRUE,911,285
7,64,"control",143,1,TRUE,TRUE,728,429
7,64,"control",144,1,TRUE,TRUE,1054,446
7,16,"omm",1,5,TRUE,TRUE,958,279
7,16,"omm",2,1,TRUE,TRUE,910,486
7,16,"omm",3,5,TRUE,FALSE,1465,462
7,16,"omm",4,5,TRUE,TRUE,885,887
7,16,"omm",5,5,TRUE,TRUE,867,191
7,16,"omm",6,1,TRUE,TRUE,953,678
7,16,"omm",7,8,TRUE,TRUE,1001,391
7,16,"omm",8,3,TRUE,TRUE,1013,613
7,16,"omm",9,5,TRUE,FALSE,1397,854
7,16,"omm",10,3,TRUE,TRUE,930,374
7,16,"omm",11,1,TRUE,TRUE,921,334
7,16,"omm",12,1,TRUE,TRUE,942,429
7,16,"omm",13,8,TRUE,FALSE,1125,302
7,16,"omm",14,8,TRUE,FALSE,1081,318
7,16,"omm",15,8,TRUE,TRUE,1022,343
7,16,"omm",16,3,TRUE,TRUE,699,478
7,16,"omm",17,8,TRUE,TRUE,769,390
7,16,"omm",18,8,TRUE,TRUE,1013,598
7,16,"omm",19,8,TRUE,TRUE,984,438
7,16,"omm",20,5,TRUE,TRUE,551,247
7,16,"omm",21,8,TRUE,TRUE,735,343
7,16,"omm",22,3,TRUE,TRUE,835,191
7,16,"omm",23,8,TRUE,TRUE,826,304
7,16,"omm",24,1,TRUE,TRUE,943,150
7,16,"omm",25,8,TRUE,TRUE,1247,230
7,16,"omm",26,1,TRUE,TRUE,979,510
7,16,"omm",27,8,TRUE,TRUE,966,431
7,16,"omm",28,5,TRUE,TRUE,816,517
7,16,"omm",29,3,TRUE,TRUE,1513,334
7,16,"omm",30,1,TRUE,TRUE,849,606
7,16,"omm",31,8,TRUE,TRUE,1062,486
7,16,"omm",32,3,TRUE,TRUE,754,341
7,16,"omm",33,3,TRUE,TRUE,1229,446
7,16,"omm",34,1,TRUE,TRUE,893,285
7,16,"omm",35,1,TRUE,TRUE,825,463
7,16,"omm",36,8,TRUE,TRUE,1221,439
7,16,"omm",37,3,TRUE,FALSE,1204,398
7,16,"omm",38,1,TRUE,TRUE,543,422
7,16,"omm",39,3,TRUE,TRUE,976,598
7,16,"omm",40,1,TRUE,TRUE,1241,262
7,16,"omm",41,8,TRUE,TRUE,807,333
7,16,"omm",42,8,TRUE,TRUE,878,198
7,16,"omm",43,8,TRUE,TRUE,943,430
7,16,"omm",44,3,TRUE,FALSE,1040,166
7,16,"omm",45,1,TRUE,TRUE,921,277
7,16,"omm",46,1,TRUE,TRUE,680,334
7,16,"omm",47,5,TRUE,TRUE,1225,454
7,16,"omm",48,5,TRUE,TRUE,712,206
7,16,"omm",49,5,TRUE,TRUE,740,199
7,16,"omm",50,1,TRUE,TRUE,823,549
7,16,"omm",51,1,TRUE,TRUE,920,326
7,16,"omm",52,3,TRUE,TRUE,935,205
7,16,"omm",53,3,TRUE,FALSE,1111,495
7,16,"omm",54,3,TRUE,TRUE,1275,390
7,16,"omm",55,5,TRUE,TRUE,863,199
7,16,"omm",56,5,TRUE,TRUE,612,190
7,16,"omm",57,5,TRUE,TRUE,674,39
7,16,"omm",58,5,TRUE,TRUE,638,134
7,16,"omm",59,8,TRUE,TRUE,935,151
7,16,"omm",60,8,TRUE,TRUE,668,189
7,16,"omm",61,3,TRUE,TRUE,384,397
7,16,"omm",62,3,TRUE,TRUE,601,349
7,16,"omm",63,3,TRUE,TRUE,482,397
7,16,"omm",64,1,TRUE,TRUE,421,590
7,16,"omm",65,1,TRUE,TRUE,736,518
7,16,"omm",66,1,TRUE,TRUE,646,621
7,16,"omm",67,5,TRUE,TRUE,716,542
7,16,"omm",68,5,TRUE,TRUE,765,621
7,16,"omm",69,8,TRUE,TRUE,714,269
7,16,"omm",70,5,TRUE,TRUE,596,141
7,16,"omm",71,1,TRUE,TRUE,679,118
7,16,"omm",72,3,TRUE,TRUE,889,286
7,16,"omm",73,8,TRUE,TRUE,1554,174
7,16,"omm",74,8,TRUE,TRUE,1105,118
7,16,"omm",75,5,TRUE,TRUE,470,229
7,16,"omm",76,5,TRUE,TRUE,700,421
7,16,"omm",77,1,TRUE,TRUE,766,431
7,16,"omm",78,3,TRUE,TRUE,803,181
7,16,"omm",79,3,TRUE,TRUE,729,374
7,16,"omm",80,5,TRUE,TRUE,1179,261
7,16,"omm",81,3,TRUE,TRUE,839,470
7,16,"omm",82,8,TRUE,TRUE,785,197
7,16,"omm",83,5,TRUE,TRUE,637,406
7,16,"omm",84,3,TRUE,FALSE,1533,2038
7,16,"omm",85,8,TRUE,TRUE,832,326
7,16,"omm",86,8,TRUE,TRUE,1162,213
7,16,"omm",87,8,TRUE,TRUE,1139,462
7,16,"omm",88,3,TRUE,TRUE,464,157
7,16,"omm",89,5,TRUE,TRUE,1079,406
7,16,"omm",90,1,TRUE,TRUE,786,389
7,16,"omm",91,8,TRUE,TRUE,867,421
7,16,"omm",92,1,TRUE,TRUE,368,422
7,16,"omm",93,5,TRUE,TRUE,961,357
7,16,"omm",94,3,TRUE,TRUE,803,373
7,16,"omm",95,5,TRUE,TRUE,874,390
7,16,"omm",96,5,TRUE,TRUE,895,205
7,16,"omm",97,3,TRUE,TRUE,401,222
7,16,"omm",98,3,TRUE,TRUE,656,597
7,16,"omm",99,5,TRUE,TRUE,825,238
7,16,"omm",100,1,TRUE,TRUE,934,541
7,16,"omm",101,1,TRUE,TRUE,1017,510
7,16,"omm",102,3,TRUE,TRUE,906,470
7,16,"omm",103,3,TRUE,TRUE,953,230
7,16,"omm",104,3,TRUE,TRUE,618,277
7,16,"omm",105,8,TRUE,TRUE,911,350
7,16,"omm",106,3,FALSE,FALSE,1427,389
7,16,"omm",107,5,FALSE,FALSE,903,973
7,16,"omm",108,5,TRUE,TRUE,484,269
7,16,"omm",109,3,TRUE,FALSE,876,613
7,16,"omm",110,8,TRUE,TRUE,1033,269
7,16,"omm",111,3,TRUE,TRUE,535,334
7,16,"omm",112,5,TRUE,TRUE,439,397
7,16,"omm",113,3,TRUE,TRUE,910,421
7,16,"omm",114,1,TRUE,TRUE,907,741
7,16,"omm",115,1,TRUE,TRUE,629,261
7,16,"omm",116,1,TRUE,TRUE,744,405
7,16,"omm",117,1,TRUE,TRUE,698,269
7,16,"omm",118,5,TRUE,FALSE,903,389
7,16,"omm",119,8,TRUE,TRUE,825,270
7,16,"omm",120,1,TRUE,TRUE,793,205
7,16,"omm",121,8,TRUE,TRUE,874,381
7,16,"omm",122,1,TRUE,TRUE,875,413
7,16,"omm",123,8,TRUE,TRUE,617,437
7,16,"omm",124,8,TRUE,TRUE,796,381
7,16,"omm",125,1,TRUE,TRUE,484,278
7,16,"omm",126,8,TRUE,TRUE,837,221
7,16,"omm",127,5,TRUE,TRUE,762,550
7,16,"omm",128,3,TRUE,TRUE,807,494
7,16,"omm",129,5,TRUE,TRUE,886,877
7,16,"omm",130,5,TRUE,TRUE,831,477
7,16,"omm",131,1,TRUE,TRUE,440,333
7,16,"omm",132,5,TRUE,TRUE,758,197
7,16,"omm",133,3,TRUE,TRUE,423,340
7,16,"omm",134,5,TRUE,TRUE,932,516
7,16,"omm",135,1,TRUE,TRUE,679,190
7,16,"omm",136,8,TRUE,TRUE,795,349
7,16,"omm",137,8,TRUE,TRUE,1016,685
7,16,"omm",138,3,TRUE,TRUE,391,485
7,16,"omm",139,3,TRUE,TRUE,570,318
7,16,"omm",140,1,FALSE,FALSE,792,484
7,16,"omm",141,1,TRUE,TRUE,1031,478
7,16,"omm",142,5,TRUE,TRUE,778,412
7,16,"omm",143,8,TRUE,TRUE,732,301
7,16,"omm",144,1,TRUE,TRUE,508,317
7,17,"control",1,8,TRUE,TRUE,1302,439
7,17,"control",2,1,TRUE,TRUE,1444,527
7,17,"control",3,3,TRUE,TRUE,1455,414
7,17,"control",4,8,TRUE,TRUE,1180,350
7,17,"control",5,5,TRUE,TRUE,1015,423
7,17,"control",6,8,TRUE,TRUE,1185,334
7,17,"control",7,8,TRUE,TRUE,1299,478
7,17,"control",8,3,TRUE,TRUE,1107,662
7,17,"control",9,8,TRUE,TRUE,1120,455
7,17,"control",10,1,TRUE,TRUE,1449,526
7,17,"control",11,8,TRUE,TRUE,1040,383
7,17,"control",12,5,TRUE,FALSE,1608,2246
7,17,"control",13,5,TRUE,TRUE,1267,463
7,17,"control",14,5,TRUE,TRUE,1056,605
7,17,"control",15,3,TRUE,TRUE,1323,510
7,17,"control",16,3,FALSE,FALSE,1605,398
7,17,"control",17,8,TRUE,TRUE,1301,461
7,17,"control",18,5,TRUE,FALSE,1702,582
7,17,"control",19,1,TRUE,FALSE,1760,463
7,17,"control",20,3,TRUE,TRUE,1182,382
7,17,"control",21,3,TRUE,FALSE,1651,511
7,17,"control",22,5,TRUE,TRUE,1226,510
7,17,"control",23,8,TRUE,TRUE,1134,319
7,17,"control",24,3,TRUE,TRUE,1512,367
7,17,"control",25,5,TRUE,FALSE,1632,462
7,17,"control",26,1,TRUE,TRUE,1385,598
7,17,"control",27,8,TRUE,TRUE,1232,501
7,17,"control",28,1,FALSE,FALSE,1931,575
7,17,"control",29,3,TRUE,TRUE,1399,398
7,17,"control",30,5,TRUE,TRUE,1032,549
7,17,"control",31,1,TRUE,TRUE,1033,558
7,17,"control",32,5,TRUE,TRUE,1065,397
7,17,"control",33,5,TRUE,FALSE,1432,294
7,17,"control",34,8,TRUE,TRUE,1245,710
7,17,"control",35,1,TRUE,TRUE,1254,654
7,17,"control",36,1,TRUE,FALSE,1534,470
7,17,"control",37,3,TRUE,FALSE,1469,479
7,17,"control",38,3,TRUE,FALSE,1130,558
7,17,"control",39,8,TRUE,TRUE,1259,567
7,17,"control",40,8,TRUE,TRUE,1346,357
7,17,"control",41,1,TRUE,TRUE,978,366
7,17,"control",42,8,TRUE,TRUE,1228,414
7,17,"control",43,1,TRUE,TRUE,1179,415
7,17,"control",44,1,TRUE,TRUE,2947,365
7,17,"control",45,3,TRUE,FALSE,1065,478
7,17,"control",46,8,TRUE,TRUE,901,518
7,17,"control",47,1,TRUE,TRUE,1161,534
7,17,"control",48,8,TRUE,TRUE,1145,366
7,17,"control",49,1,TRUE,TRUE,1028,558
7,17,"control",50,8,FALSE,FALSE,1445,597
7,17,"control",51,3,TRUE,TRUE,1171,366
7,17,"control",52,3,TRUE,TRUE,1367,406
7,17,"control",53,8,TRUE,TRUE,1043,653
7,17,"control",54,8,TRUE,TRUE,1121,414
7,17,"control",55,5,TRUE,TRUE,957,414
7,17,"control",56,1,TRUE,TRUE,903,710
7,17,"control",57,8,TRUE,TRUE,1366,374
7,17,"control",58,1,TRUE,TRUE,1180,374
7,17,"control",59,1,TRUE,TRUE,1234,477
7,17,"control",60,3,TRUE,FALSE,1503,326
7,17,"control",61,5,TRUE,TRUE,1181,566
7,17,"control",62,3,TRUE,FALSE,1473,390
7,17,"control",63,3,TRUE,FALSE,1471,582
7,17,"control",64,5,TRUE,TRUE,1004,374
7,17,"control",65,3,TRUE,FALSE,1367,1758
7,17,"control",66,1,TRUE,TRUE,1050,366
7,17,"control",67,8,TRUE,TRUE,1158,407
7,17,"control",68,8,TRUE,TRUE,1552,518
7,17,"control",69,3,TRUE,TRUE,1087,358
7,17,"control",70,5,TRUE,TRUE,1190,454
7,17,"control",71,3,TRUE,TRUE,1388,366
7,17,"control",72,5,TRUE,TRUE,983,373
7,17,"control",73,3,TRUE,TRUE,1187,382
7,17,"control",74,5,TRUE,FALSE,1269,532
7,17,"control",75,8,TRUE,TRUE,1221,341
7,17,"control",76,1,TRUE,TRUE,1254,367
7,17,"control",77,1,FALSE,FALSE,1354,390
7,17,"control",78,5,TRUE,TRUE,1014,382
7,17,"control",79,8,FALSE,FALSE,1476,2039
7,17,"control",80,3,TRUE,TRUE,1081,541
7,17,"control",81,3,TRUE,TRUE,805,677
7,17,"control",82,3,TRUE,FALSE,1268,388
7,17,"control",83,5,TRUE,TRUE,1002,326
7,17,"control",84,5,TRUE,TRUE,1291,389
7,17,"control",85,8,TRUE,TRUE,997,533
7,17,"control",86,3,TRUE,TRUE,1246,365
7,17,"control",87,5,TRUE,TRUE,1029,438
7,17,"control",88,8,TRUE,TRUE,953,710
7,17,"control",89,1,TRUE,TRUE,1292,542
7,17,"control",90,3,TRUE,FALSE,1121,525
7,17,"control",91,5,TRUE,FALSE,1438,565
7,17,"control",92,5,TRUE,TRUE,1082,390
7,17,"control",93,5,TRUE,TRUE,888,333
7,17,"control",94,1,FALSE,FALSE,1197,341
7,17,"control",95,5,TRUE,TRUE,1050,381
7,17,"control",96,5,TRUE,TRUE,1039,373
7,17,"control",97,8,TRUE,TRUE,1030,343
7,17,"control",98,3,TRUE,FALSE,1069,565
7,17,"control",99,1,TRUE,FALSE,1055,373
7,17,"control",100,5,TRUE,TRUE,1024,445
7,17,"control",101,3,TRUE,TRUE,1112,534
7,17,"control",102,3,TRUE,TRUE,1084,349
7,17,"control",103,8,TRUE,FALSE,1931,366
7,17,"control",104,5,TRUE,FALSE,1302,445
7,17,"control",105,3,FALSE,FALSE,1503,374
7,17,"control",106,1,TRUE,TRUE,1332,340
7,17,"control",107,1,FALSE,FALSE,994,1062
7,17,"control",108,8,TRUE,TRUE,1275,598
7,17,"control",109,3,TRUE,TRUE,1507,349
7,17,"control",110,5,TRUE,TRUE,1155,518
7,17,"control",111,5,TRUE,TRUE,1227,413
7,17,"control",112,8,TRUE,TRUE,1249,517
7,17,"control",113,1,TRUE,TRUE,768,405
7,17,"control",114,3,TRUE,TRUE,927,358
7,17,"control",115,1,TRUE,TRUE,1116,565
7,17,"control",116,1,TRUE,TRUE,817,341
7,17,"control",117,5,TRUE,TRUE,867,455
7,17,"control",118,3,TRUE,TRUE,1006,333
7,17,"control",119,8,TRUE,TRUE,1439,390
7,17,"control",120,5,TRUE,TRUE,1099,509
7,17,"control",121,1,TRUE,TRUE,1102,494
7,17,"control",122,3,TRUE,TRUE,1268,613
7,17,"control",123,5,TRUE,FALSE,1499,510
7,17,"control",124,1,TRUE,TRUE,1259,414
7,17,"control",125,8,TRUE,TRUE,1094,533
7,17,"control",126,8,TRUE,TRUE,1136,542
7,17,"control",127,8,TRUE,TRUE,1078,357
7,17,"control",128,3,TRUE,TRUE,1296,398
7,17,"control",129,1,TRUE,TRUE,1136,334
7,17,"control",130,3,TRUE,FALSE,1590,398
7,17,"control",131,1,TRUE,FALSE,1330,886
7,17,"control",132,3,TRUE,TRUE,1207,565
7,17,"control",133,8,TRUE,TRUE,946,485
7,17,"control",134,5,TRUE,TRUE,954,453
7,17,"control",135,5,TRUE,FALSE,1270,421
7,17,"control",136,8,TRUE,TRUE,1277,453
7,17,"control",137,8,TRUE,TRUE,1272,350
7,17,"control",138,1,TRUE,TRUE,1026,564
7,17,"control",139,5,TRUE,TRUE,1110,389
7,17,"control",140,1,TRUE,TRUE,1339,429
7,17,"control",141,1,TRUE,TRUE,1191,405
7,17,"control",142,1,TRUE,TRUE,1109,517
7,17,"control",143,1,TRUE,TRUE,1002,365
7,17,"control",144,5,TRUE,TRUE,871,445
7,18,"fam",1,8,TRUE,TRUE,796,334
7,18,"fam",2,5,TRUE,TRUE,408,182
7,18,"fam",3,8,TRUE,TRUE,926,431
7,18,"fam",4,1,TRUE,TRUE,651,342
7,18,"fam",5,8,TRUE,TRUE,876,415
7,18,"fam",6,3,TRUE,TRUE,960,279
7,18,"fam",7,5,TRUE,TRUE,712,311
7,18,"fam",8,5,TRUE,TRUE,803,270
7,18,"fam",9,5,TRUE,TRUE,843,631
7,18,"fam",10,1,TRUE,TRUE,389,198
7,18,"fam",11,8,TRUE,TRUE,1064,535
7,18,"fam",12,5,TRUE,TRUE,968,189
7,18,"fam",13,5,TRUE,TRUE,1040,302
7,18,"fam",14,5,TRUE,TRUE,833,334
7,18,"fam",15,5,TRUE,TRUE,1180,286
7,18,"fam",16,3,TRUE,TRUE,886,423
7,18,"fam",17,8,TRUE,TRUE,1005,511
7,18,"fam",18,1,TRUE,TRUE,1059,190
7,18,"fam",19,1,TRUE,TRUE,1168,390
7,18,"fam",20,3,TRUE,TRUE,604,343
7,18,"fam",21,5,TRUE,TRUE,942,471
7,18,"fam",22,8,TRUE,TRUE,951,254
7,18,"fam",23,5,TRUE,TRUE,494,246
7,18,"fam",24,3,TRUE,TRUE,846,214
7,18,"fam",25,1,TRUE,TRUE,594,286
7,18,"fam",26,5,TRUE,TRUE,939,566
7,18,"fam",27,3,TRUE,TRUE,749,415
7,18,"fam",28,8,TRUE,TRUE,807,334
7,18,"fam",29,5,TRUE,TRUE,664,158
7,18,"fam",30,8,TRUE,TRUE,738,198
7,18,"fam",31,8,TRUE,TRUE,1077,262
7,18,"fam",32,3,TRUE,TRUE,690,501
7,18,"fam",33,5,TRUE,TRUE,686,383
7,18,"fam",34,3,TRUE,TRUE,1060,206
7,18,"fam",35,8,TRUE,TRUE,1013,286
7,18,"fam",36,3,TRUE,TRUE,732,471
7,18,"fam",37,8,TRUE,TRUE,831,454
7,18,"fam",38,1,TRUE,TRUE,1017,398
7,18,"fam",39,5,TRUE,TRUE,696,591
7,18,"fam",40,5,TRUE,TRUE,953,182
7,18,"fam",41,1,TRUE,TRUE,621,190
7,18,"fam",42,3,TRUE,TRUE,872,447
7,18,"fam",43,5,TRUE,TRUE,569,159
7,18,"fam",44,3,TRUE,TRUE,1087,222
7,18,"fam",45,5,TRUE,TRUE,908,486
7,18,"fam",46,3,TRUE,TRUE,733,358
7,18,"fam",47,1,TRUE,TRUE,606,182
7,18,"fam",48,5,TRUE,TRUE,772,174
7,18,"fam",49,5,TRUE,TRUE,1141,542
7,18,"fam",50,8,TRUE,TRUE,825,390
7,18,"fam",51,3,TRUE,TRUE,797,351
7,18,"fam",52,3,TRUE,TRUE,963,310
7,18,"fam",53,3,TRUE,TRUE,1049,231
7,18,"fam",54,1,TRUE,TRUE,820,182
7,18,"fam",55,5,TRUE,TRUE,372,399
7,18,"fam",56,3,TRUE,TRUE,550,287
7,18,"fam",57,8,TRUE,TRUE,948,142
7,18,"fam",58,5,TRUE,TRUE,923,190
7,18,"fam",59,1,TRUE,TRUE,874,110
7,18,"fam",60,3,TRUE,TRUE,404,158
7,18,"fam",61,3,TRUE,TRUE,866,159
7,18,"fam",62,3,TRUE,TRUE,809,159
7,18,"fam",63,5,TRUE,TRUE,810,366
7,18,"fam",64,1,TRUE,TRUE,585,398
7,18,"fam",65,5,TRUE,TRUE,962,270
7,18,"fam",66,8,TRUE,TRUE,911,326
7,18,"fam",67,3,TRUE,TRUE,520,238
7,18,"fam",68,5,TRUE,TRUE,998,294
7,18,"fam",69,1,TRUE,TRUE,761,142
7,18,"fam",70,3,TRUE,TRUE,808,166
7,18,"fam",71,3,TRUE,TRUE,580,318
7,18,"fam",72,1,TRUE,TRUE,1078,198
7,18,"fam",73,3,TRUE,TRUE,922,511
7,18,"fam",74,1,TRUE,TRUE,845,126
7,18,"fam",75,8,TRUE,TRUE,907,190
7,18,"fam",76,1,TRUE,TRUE,1045,213
7,18,"fam",77,1,TRUE,TRUE,893,367
7,18,"fam",78,5,TRUE,TRUE,736,181
7,18,"fam",79,1,TRUE,TRUE,796,278
7,18,"fam",80,5,TRUE,TRUE,395,366
7,18,"fam",81,8,TRUE,TRUE,959,230
7,18,"fam",82,1,TRUE,TRUE,1187,447
7,18,"fam",83,8,TRUE,TRUE,867,430
7,18,"fam",84,3,TRUE,TRUE,898,198
7,18,"fam",85,5,TRUE,TRUE,685,230
7,18,"fam",86,8,TRUE,TRUE,1059,342
7,18,"fam",87,1,TRUE,TRUE,576,149
7,18,"fam",88,5,TRUE,TRUE,732,381
7,18,"fam",89,8,TRUE,TRUE,905,116
7,18,"fam",90,8,TRUE,TRUE,814,542
7,18,"fam",91,8,TRUE,TRUE,895,502
7,18,"fam",92,5,TRUE,TRUE,873,333
7,18,"fam",93,1,TRUE,TRUE,761,318
7,18,"fam",94,5,TRUE,TRUE,1055,342
7,18,"fam",95,5,TRUE,TRUE,424,182
7,18,"fam",96,8,TRUE,TRUE,852,205
7,18,"fam",97,3,TRUE,TRUE,886,246
7,18,"fam",98,1,TRUE,TRUE,516,174
7,18,"fam",99,8,TRUE,TRUE,751,462
7,18,"fam",100,8,TRUE,TRUE,928,180
7,18,"fam",101,3,TRUE,TRUE,375,382
7,18,"fam",102,1,TRUE,TRUE,1116,454
7,18,"fam",103,1,TRUE,TRUE,853,221
7,18,"fam",104,3,TRUE,TRUE,1064,390
7,18,"fam",105,8,TRUE,TRUE,956,197
7,18,"fam",106,3,TRUE,TRUE,1116,461
7,18,"fam",107,5,TRUE,TRUE,764,421
7,18,"fam",108,3,TRUE,TRUE,808,150
7,18,"fam",109,8,TRUE,TRUE,839,158
7,18,"fam",110,1,TRUE,TRUE,813,350
7,18,"fam",111,1,TRUE,TRUE,880,533
7,18,"fam",112,3,TRUE,TRUE,791,165
7,18,"fam",113,3,TRUE,TRUE,564,389
7,18,"fam",114,1,TRUE,TRUE,559,389
7,18,"fam",115,3,TRUE,TRUE,727,142
7,18,"fam",116,1,TRUE,TRUE,1034,445
7,18,"fam",117,5,TRUE,TRUE,917,438
7,18,"fam",118,8,TRUE,TRUE,1040,518
7,18,"fam",119,8,TRUE,TRUE,897,389
7,18,"fam",120,8,TRUE,TRUE,874,173
7,18,"fam",121,1,TRUE,TRUE,679,357
7,18,"fam",122,8,TRUE,TRUE,819,149
7,18,"fam",123,3,TRUE,TRUE,748,326
7,18,"fam",124,1,TRUE,TRUE,777,190
7,18,"fam",125,1,TRUE,TRUE,564,405
7,18,"fam",126,8,TRUE,TRUE,895,517
7,18,"fam",127,5,TRUE,TRUE,1256,398
7,18,"fam",128,1,TRUE,TRUE,908,452
7,18,"fam",129,3,TRUE,TRUE,195,293
7,18,"fam",130,1,TRUE,TRUE,754,205
7,18,"fam",131,1,TRUE,TRUE,934,430
7,18,"fam",132,5,TRUE,TRUE,687,245
7,18,"fam",133,8,TRUE,TRUE,855,484
7,18,"fam",134,8,TRUE,TRUE,933,382
7,18,"fam",135,1,TRUE,TRUE,811,365
7,18,"fam",136,1,TRUE,TRUE,786,341
7,18,"fam",137,3,TRUE,TRUE,935,198
7,18,"fam",138,3,TRUE,TRUE,692,437
7,18,"fam",139,1,TRUE,TRUE,828,405
7,18,"fam",140,5,TRUE,TRUE,744,374
7,18,"fam",141,8,TRUE,TRUE,781,173
7,18,"fam",142,3,TRUE,TRUE,738,293
7,18,"fam",143,8,TRUE,TRUE,817,222
7,18,"fam",144,8,TRUE,TRUE,1053,324
7,19,"fam",1,5,TRUE,TRUE,1162,598
7,19,"fam",2,3,TRUE,TRUE,1213,638
7,19,"fam",3,8,TRUE,TRUE,1503,598
7,19,"fam",4,3,TRUE,TRUE,1120,359
7,19,"fam",5,3,TRUE,TRUE,1069,383
7,19,"fam",6,5,TRUE,TRUE,940,486
7,19,"fam",7,5,TRUE,FALSE,1261,294
7,19,"fam",8,8,TRUE,TRUE,1049,349
7,19,"fam",9,1,TRUE,TRUE,1229,550
7,19,"fam",10,3,TRUE,TRUE,852,639
7,19,"fam",11,5,TRUE,TRUE,970,527
7,19,"fam",12,5,TRUE,TRUE,924,599
7,19,"fam",13,1,TRUE,TRUE,1031,310
7,19,"fam",14,3,TRUE,FALSE,1352,326
7,19,"fam",15,3,TRUE,FALSE,1225,734
7,19,"fam",16,3,TRUE,FALSE,1279,614
7,19,"fam",17,8,TRUE,TRUE,1199,534
7,19,"fam",18,1,TRUE,TRUE,903,238
7,19,"fam",19,3,TRUE,FALSE,2048,830
7,19,"fam",20,1,FALSE,FALSE,1551,2621
7,19,"fam",21,3,FALSE,FALSE,1295,302
7,19,"fam",22,1,TRUE,TRUE,1105,631
7,19,"fam",23,8,TRUE,TRUE,1094,397
7,19,"fam",24,8,TRUE,TRUE,1149,503
7,19,"fam",25,8,TRUE,TRUE,1019,223
7,19,"fam",26,8,TRUE,TRUE,988,542
7,19,"fam",27,5,TRUE,TRUE,777,495
7,19,"fam",28,5,TRUE,TRUE,958,590
7,19,"fam",29,1,TRUE,TRUE,1022,478
7,19,"fam",30,3,TRUE,TRUE,965,327
7,19,"fam",31,3,TRUE,FALSE,1127,894
7,19,"fam",32,3,FALSE,FALSE,1195,582
7,19,"fam",33,5,TRUE,FALSE,1905,518
7,19,"fam",34,8,TRUE,TRUE,998,215
7,19,"fam",35,8,TRUE,TRUE,1013,446
7,19,"fam",36,8,TRUE,TRUE,962,399
7,19,"fam",37,3,TRUE,TRUE,910,502
7,19,"fam",38,1,TRUE,TRUE,835,350
7,19,"fam",39,5,TRUE,TRUE,1152,478
7,19,"fam",40,8,TRUE,TRUE,967,350
7,19,"fam",41,1,TRUE,TRUE,1038,463
7,19,"fam",42,8,TRUE,TRUE,1021,422
7,19,"fam",43,8,TRUE,TRUE,952,343
7,19,"fam",44,8,TRUE,TRUE,993,238
7,19,"fam",45,3,TRUE,TRUE,796,542
7,19,"fam",46,5,TRUE,TRUE,706,206
